DataID,ExperimentName,Subject,Age,Group,SessionDate,Sex,Block,Trial,Procedure[Trial],Running[Trial],SpeakerBlocks,SpeakerBlocks.Cycle,SpeakerBlocks.Sample,SpeakerNum,SubTrial,ConResp[SubTrial],IntLevel,IntLevelNum,RespK.ACC[SubTrial],RespK.CRESP[SubTrial],RespK.RESP[SubTrial],RespK.RT[SubTrial],Scenario[SubTrial],SoundFile[SubTrial],Speaker[SubTrial],StimList,StimList.Cycle,StimList.Sample,StimNum,SpeakerSex,StimDB1,KoreanPoliteness_INT_KOR_KU,101,27,1,11/23/15,male,2,1,BlockProc,SpeakerBlocks,4,1,1,4,1,8,7halfPerc,2,1,8,8,1064,5,F0eq_LoInt_7halfPerc_4_5_con.wav,4,12,1,1,12,female,682,KoreanPoliteness_INT_KOR_KU,101,27,1,11/23/15,male,2,1,BlockProc,SpeakerBlocks,4,1,1,4,2,8,10Perc,1,1,8,8,877,5,F0eq_LoInt_10Perc_4_5_con.wav,4,4,1,2,4,female,663,KoreanPoliteness_INT_KOR_KU,101,27,1,11/23/15,male,2,1,BlockProc,SpeakerBlocks,4,1,1,4,3,8,10Perc,1,0,8,2,2128,2,F0eq_LoInt_10Perc_4_2_con.wav,4,2,1,3,2,female,664,KoreanPoliteness_INT_KOR_KU,101,27,1,11/23/15,male,2,1,BlockProc,SpeakerBlocks,4,1,1,4,4,8,10Perc,1,1,8,8,2495,1,F0eq_LoInt_10Perc_4_1_con.wav,4,1,1,4,1,female,675,KoreanPoliteness_INT_KOR_KU,101,27,1,11/23/15,male,2,1,BlockProc,SpeakerBlocks,4,1,1,4,5,8,5Perc,3,1,8,8,2512,4,F0eq_LoInt_5Perc_4_4_con.wav,4,19,1,5,19,female,706,KoreanPoliteness_INT_KOR_KU,101,27,1,11/23/15,male,2,1,BlockProc,SpeakerBlocks,4,1,1,4,6,8,7halfPerc,2,1,8,8,2196,2,F0eq_LoInt_7halfPerc_4_2_con.wav,4,10,1,6,10,female,677,KoreanPoliteness_INT_KOR_KU,101,27,1,11/23/15,male,2,1,BlockProc,SpeakerBlocks,4,1,1,4,7,8,Orig,5,0,8,2,672,9,F0eq_Int_Orig_4_9_con.wav,4,39,1,7,39,female,748,KoreanPoliteness_INT_KOR_KU,101,27,1,11/23/15,male,2,1,BlockProc,SpeakerBlocks,4,1,1,4,8,8,7halfPerc,2,1,8,8,2775,7,F0eq_LoInt_7halfPerc_4_7_con.wav,4,14,1,8,14,female,679,KoreanPoliteness_INT_KOR_KU,101,27,1,11/23/15,male,2,1,BlockProc,SpeakerBlocks,4,1,1,4,9,8,10Perc,1,1,8,8,2024,6,F0eq_LoInt_10Perc_4_6_con.wav,4,5,1,9,5,female,6610,KoreanPoliteness_INT_KOR_KU,101,27,1,11/23/15,male,2,1,BlockProc,SpeakerBlocks,4,1,1,4,10,8,10Perc,1,1,8,8,1894,4,F0eq_LoInt_10Perc_4_4_con.wav,4,3,1,10,3,female,6611,KoreanPoliteness_INT_KOR_KU,101,27,1,11/23/15,male,2,1,BlockProc,SpeakerBlocks,4,1,1,4,11,8,10Perc,1,0,8,2,530,10,F0eq_LoInt_10Perc_4_10_con.wav,4,8,1,11,8,female,6712,KoreanPoliteness_INT_KOR_KU,101,27,1,11/23/15,male,2,1,BlockProc,SpeakerBlocks,4,1,1,4,12,8,7halfPerc,2,0,8,2,742,4,F0eq_LoInt_7halfPerc_4_4_con.wav,4,11,1,12,11,female,6813,KoreanPoliteness_INT_KOR_KU,101,27,1,11/23/15,male,2,1,BlockProc,SpeakerBlocks,4,1,1,4,13,8,5Perc,3,0,8,2,1860,1,F0eq_LoInt_5Perc_4_1_con.wav,4,17,1,13,17,female,7014,KoreanPoliteness_INT_KOR_KU,101,27,1,11/23/15,male,2,1,BlockProc,SpeakerBlocks,4,1,1,4,14,8,2halfPerc,4,0,8,2,633,1,F0eq_LoInt_2halfPerc_4_1_con.wav,4,25,1,14,25,female,7215,KoreanPoliteness_INT_KOR_KU,101,27,1,11/23/15,male,2,1,BlockProc,SpeakerBlocks,4,1,1,4,15,8,Orig,5,0,8,2,613,6,F0eq_Int_Orig_4_6_con.wav,4,37,1,15,37,female,7316,KoreanPoliteness_INT_KOR_KU,101,27,1,11/23/15,male,2,1,BlockProc,SpeakerBlocks,4,1,1,4,16,8,Orig,5,1,8,8,1288,7,F0eq_Int_Orig_4_7_con.wav,4,38,1,16,38,female,7217,KoreanPoliteness_INT_KOR_KU,101,27,1,11/23/15,male,2,1,BlockProc,SpeakerBlocks,4,1,1,4,17,8,10Perc,1,0,8,2,2084,9,F0eq_LoInt_10Perc_4_9_con.wav,4,7,1,17,7,female,6718,KoreanPoliteness_INT_KOR_KU,101,27,1,11/23/15,male,2,1,BlockProc,SpeakerBlocks,4,1,1,4,18,8,Orig,5,0,8,2,852,2,F0eq_Int_Orig_4_2_con.wav,4,34,1,18,34,female,7319,KoreanPoliteness_INT_KOR_KU,101,27,1,11/23/15,male,2,1,BlockProc,SpeakerBlocks,4,1,1,4,19,8,Orig,5,0,8,2,488,5,F0eq_Int_Orig_4_5_con.wav,4,36,1,19,36,female,7320,KoreanPoliteness_INT_KOR_KU,101,27,1,11/23/15,male,2,1,BlockProc,SpeakerBlocks,4,1,1,4,20,8,10Perc,1,1,8,8,2262,7,F0eq_LoInt_10Perc_4_7_con.wav,4,6,1,20,6,female,6521,KoreanPoliteness_INT_KOR_KU,101,27,1,11/23/15,male,2,1,BlockProc,SpeakerBlocks,4,1,1,4,21,8,Orig,5,0,8,2,2876,1,F0eq_Int_Orig_4_1_con.wav,4,33,1,21,33,female,7422,KoreanPoliteness_INT_KOR_KU,101,27,1,11/23/15,male,2,1,BlockProc,SpeakerBlocks,4,1,1,4,22,8,2halfPerc,4,1,8,8,2561,6,F0eq_LoInt_2halfPerc_4_6_con.wav,4,29,1,22,29,female,7223,KoreanPoliteness_INT_KOR_KU,101,27,1,11/23/15,male,2,1,BlockProc,SpeakerBlocks,4,1,1,4,23,8,2halfPerc,4,1,8,8,2856,2,F0eq_LoInt_2halfPerc_4_2_con.wav,4,26,1,23,26,female,7124,KoreanPoliteness_INT_KOR_KU,101,27,1,11/23/15,male,2,1,BlockProc,SpeakerBlocks,4,1,1,4,24,8,7halfPerc,2,1,8,8,2029,1,F0eq_LoInt_7halfPerc_4_1_con.wav,4,9,1,24,9,female,6925,KoreanPoliteness_INT_KOR_KU,101,27,1,11/23/15,male,2,1,BlockProc,SpeakerBlocks,4,1,1,4,25,8,5Perc,3,1,8,8,616,7,F0eq_LoInt_5Perc_4_7_con.wav,4,22,1,25,22,female,6926,KoreanPoliteness_INT_KOR_KU,101,27,1,11/23/15,male,2,1,BlockProc,SpeakerBlocks,4,1,1,4,26,8,5Perc,3,0,8,2,1435,5,F0eq_LoInt_5Perc_4_5_con.wav,4,20,1,26,20,female,7027,KoreanPoliteness_INT_KOR_KU,101,27,1,11/23/15,male,2,1,BlockProc,SpeakerBlocks,4,1,1,4,27,8,Orig,5,0,8,2,898,4,F0eq_Int_Orig_4_4_con.wav,4,35,1,27,35,female,7428,KoreanPoliteness_INT_KOR_KU,101,27,1,11/23/15,male,2,1,BlockProc,SpeakerBlocks,4,1,1,4,28,8,7halfPerc,2,1,8,8,1525,6,F0eq_LoInt_7halfPerc_4_6_con.wav,4,13,1,28,13,female,6829,KoreanPoliteness_INT_KOR_KU,101,27,1,11/23/15,male,2,1,BlockProc,SpeakerBlocks,4,1,1,4,29,8,2halfPerc,4,0,8,2,721,4,F0eq_LoInt_2halfPerc_4_4_con.wav,4,27,1,29,27,female,7230,KoreanPoliteness_INT_KOR_KU,101,27,1,11/23/15,male,2,1,BlockProc,SpeakerBlocks,4,1,1,4,30,8,2halfPerc,4,1,8,8,2426,7,F0eq_LoInt_2halfPerc_4_7_con.wav,4,30,1,30,30,female,7131,KoreanPoliteness_INT_KOR_KU,101,27,1,11/23/15,male,2,1,BlockProc,SpeakerBlocks,4,1,1,4,31,8,5Perc,3,0,8,2,606,10,F0eq_LoInt_5Perc_4_10_con.wav,4,24,1,31,24,female,7032,KoreanPoliteness_INT_KOR_KU,101,27,1,11/23/15,male,2,1,BlockProc,SpeakerBlocks,4,1,1,4,32,8,5Perc,3,1,8,8,1612,6,F0eq_LoInt_5Perc_4_6_con.wav,4,21,1,32,21,female,7033,KoreanPoliteness_INT_KOR_KU,101,27,1,11/23/15,male,2,1,BlockProc,SpeakerBlocks,4,1,1,4,33,8,7halfPerc,2,0,8,2,364,10,F0eq_LoInt_7halfPerc_4_10_con.wav,4,16,1,33,16,female,6934,KoreanPoliteness_INT_KOR_KU,101,27,1,11/23/15,male,2,1,BlockProc,SpeakerBlocks,4,1,1,4,34,8,Orig,5,0,8,2,314,10,F0eq_Int_Orig_4_10_con.wav,4,40,1,34,40,female,7435,KoreanPoliteness_INT_KOR_KU,101,27,1,11/23/15,male,2,1,BlockProc,SpeakerBlocks,4,1,1,4,35,8,5Perc,3,0,8,,0,9,F0eq_LoInt_5Perc_4_9_con.wav,4,23,1,35,23,female,7136,KoreanPoliteness_INT_KOR_KU,101,27,1,11/23/15,male,2,1,BlockProc,SpeakerBlocks,4,1,1,4,36,8,2halfPerc,4,1,8,8,1259,5,F0eq_LoInt_2halfPerc_4_5_con.wav,4,28,1,36,28,female,7137,KoreanPoliteness_INT_KOR_KU,101,27,1,11/23/15,male,2,1,BlockProc,SpeakerBlocks,4,1,1,4,37,8,2halfPerc,4,1,8,8,1469,9,F0eq_LoInt_2halfPerc_4_9_con.wav,4,31,1,37,31,female,7338,KoreanPoliteness_INT_KOR_KU,101,27,1,11/23/15,male,2,1,BlockProc,SpeakerBlocks,4,1,1,4,38,8,5Perc,3,1,8,8,692,2,F0eq_LoInt_5Perc_4_2_con.wav,4,18,1,38,18,female,6939,KoreanPoliteness_INT_KOR_KU,101,27,1,11/23/15,male,2,1,BlockProc,SpeakerBlocks,4,1,1,4,39,8,7halfPerc,2,1,8,8,294,9,F0eq_LoInt_7halfPerc_4_9_con.wav,4,15,1,39,15,female,6940,KoreanPoliteness_INT_KOR_KU,101,27,1,11/23/15,male,2,1,BlockProc,SpeakerBlocks,4,1,1,4,40,8,2halfPerc,4,1,8,8,2256,10,F0eq_LoInt_2halfPerc_4_10_con.wav,4,32,1,40,32,female,7241,KoreanPoliteness_INT_KOR_KU,101,27,1,11/23/15,male,2,2,BlockProc,SpeakerBlocks,1,1,2,1,1,8,7halfPerc,2,1,8,8,1084,4,F0eq_LoInt_7halfPerc_1_4_con.wav,1,11,2,41,11,male,6342,KoreanPoliteness_INT_KOR_KU,101,27,1,11/23/15,male,2,2,BlockProc,SpeakerBlocks,1,1,2,1,2,8,2halfPerc,4,0,8,2,2173,10,F0eq_LoInt_2halfPerc_1_10_con.wav,1,32,2,42,32,male,6343,KoreanPoliteness_INT_KOR_KU,101,27,1,11/23/15,male,2,2,BlockProc,SpeakerBlocks,1,1,2,1,3,8,5Perc,3,1,8,8,2651,4,F0eq_LoInt_5Perc_1_4_con.wav,1,19,2,43,19,male,6444,KoreanPoliteness_INT_KOR_KU,101,27,1,11/23/15,male,2,2,BlockProc,SpeakerBlocks,1,1,2,1,4,8,5Perc,3,1,8,8,304,5,F0eq_LoInt_5Perc_1_5_con.wav,1,20,2,44,20,male,6445,KoreanPoliteness_INT_KOR_KU,101,27,1,11/23/15,male,2,2,BlockProc,SpeakerBlocks,1,1,2,1,5,8,10Perc,1,0,8,2,279,9,F0eq_LoInt_10Perc_1_9_con.wav,1,7,2,45,7,male,6046,KoreanPoliteness_INT_KOR_KU,101,27,1,11/23/15,male,2,2,BlockProc,SpeakerBlocks,1,1,2,1,6,8,7halfPerc,2,0,8,2,296,1,F0eq_LoInt_7halfPerc_1_1_con.wav,1,9,2,46,9,male,6047,KoreanPoliteness_INT_KOR_KU,101,27,1,11/23/15,male,2,2,BlockProc,SpeakerBlocks,1,1,2,1,7,8,2halfPerc,4,0,8,2,952,6,F0eq_LoInt_2halfPerc_1_6_con.wav,1,29,2,47,29,male,6448,KoreanPoliteness_INT_KOR_KU,101,27,1,11/23/15,male,2,2,BlockProc,SpeakerBlocks,1,1,2,1,8,8,5Perc,3,0,8,2,314,7,F0eq_LoInt_5Perc_1_7_con.wav,1,22,2,48,22,male,6849,KoreanPoliteness_INT_KOR_KU,101,27,1,11/23/15,male,2,2,BlockProc,SpeakerBlocks,1,1,2,1,9,8,Orig,5,1,8,8,252,5,F0eq_Int_Orig_1_5_con.wav,1,36,2,49,36,male,6750,KoreanPoliteness_INT_KOR_KU,101,27,1,11/23/15,male,2,2,BlockProc,SpeakerBlocks,1,1,2,1,10,8,2halfPerc,4,0,8,2,1130,2,F0eq_LoInt_2halfPerc_1_2_con.wav,1,26,2,50,26,male,6451,KoreanPoliteness_INT_KOR_KU,101,27,1,11/23/15,male,2,2,BlockProc,SpeakerBlocks,1,1,2,1,11,8,Orig,5,0,8,2,354,7,F0eq_Int_Orig_1_7_con.wav,1,38,2,51,38,male,7152,KoreanPoliteness_INT_KOR_KU,101,27,1,11/23/15,male,2,2,BlockProc,SpeakerBlocks,1,1,2,1,12,8,7halfPerc,2,1,8,8,1771,10,F0eq_LoInt_7halfPerc_1_10_con.wav,1,16,2,52,16,male,5953,KoreanPoliteness_INT_KOR_KU,101,27,1,11/23/15,male,2,2,BlockProc,SpeakerBlocks,1,1,2,1,13,8,2halfPerc,4,1,8,8,2163,1,F0eq_LoInt_2halfPerc_1_1_con.wav,1,25,2,53,25,male,6354,KoreanPoliteness_INT_KOR_KU,101,27,1,11/23/15,male,2,2,BlockProc,SpeakerBlocks,1,1,2,1,14,8,7halfPerc,2,1,8,8,50,5,F0eq_LoInt_7halfPerc_1_5_con.wav,1,12,2,54,12,male,6255,KoreanPoliteness_INT_KOR_KU,101,27,1,11/23/15,male,2,2,BlockProc,SpeakerBlocks,1,1,2,1,15,8,2halfPerc,4,1,8,8,679,5,F0eq_LoInt_2halfPerc_1_5_con.wav,1,28,2,55,28,male,6656,KoreanPoliteness_INT_KOR_KU,101,27,1,11/23/15,male,2,2,BlockProc,SpeakerBlocks,1,1,2,1,16,8,10Perc,1,0,8,2,238,10,F0eq_LoInt_10Perc_1_10_con.wav,1,8,2,56,8,male,5857,KoreanPoliteness_INT_KOR_KU,101,27,1,11/23/15,male,2,2,BlockProc,SpeakerBlocks,1,1,2,1,17,8,Orig,5,0,8,2,1568,10,F0eq_Int_Orig_1_10_con.wav,1,40,2,57,40,male,6458,KoreanPoliteness_INT_KOR_KU,101,27,1,11/23/15,male,2,2,BlockProc,SpeakerBlocks,1,1,2,1,18,8,7halfPerc,2,0,8,2,1124,7,F0eq_LoInt_7halfPerc_1_7_con.wav,1,14,2,58,14,male,6659,KoreanPoliteness_INT_KOR_KU,101,27,1,11/23/15,male,2,2,BlockProc,SpeakerBlocks,1,1,2,1,19,8,7halfPerc,2,0,8,2,1506,6,F0eq_LoInt_7halfPerc_1_6_con.wav,1,13,2,59,13,male,6060,KoreanPoliteness_INT_KOR_KU,101,27,1,11/23/15,male,2,2,BlockProc,SpeakerBlocks,1,1,2,1,20,8,7halfPerc,2,1,8,8,2022,9,F0eq_LoInt_7halfPerc_1_9_con.wav,1,15,2,60,15,male,6261,KoreanPoliteness_INT_KOR_KU,101,27,1,11/23/15,male,2,2,BlockProc,SpeakerBlocks,1,1,2,1,21,8,5Perc,3,1,8,8,920,6,F0eq_LoInt_5Perc_1_6_con.wav,1,21,2,61,21,male,6262,KoreanPoliteness_INT_KOR_KU,101,27,1,11/23/15,male,2,2,BlockProc,SpeakerBlocks,1,1,2,1,22,8,5Perc,3,1,8,8,420,2,F0eq_LoInt_5Perc_1_2_con.wav,1,18,2,62,18,male,6263,KoreanPoliteness_INT_KOR_KU,101,27,1,11/23/15,male,2,2,BlockProc,SpeakerBlocks,1,1,2,1,23,8,10Perc,1,1,8,8,152,5,F0eq_LoInt_10Perc_1_5_con.wav,1,4,2,63,4,male,6064,KoreanPoliteness_INT_KOR_KU,101,27,1,11/23/15,male,2,2,BlockProc,SpeakerBlocks,1,1,2,1,24,8,7halfPerc,2,1,8,8,148,2,F0eq_LoInt_7halfPerc_1_2_con.wav,1,10,2,64,10,male,6065,KoreanPoliteness_INT_KOR_KU,101,27,1,11/23/15,male,2,2,BlockProc,SpeakerBlocks,1,1,2,1,25,8,Orig,5,0,8,2,1014,6,F0eq_Int_Orig_1_6_con.wav,1,37,2,65,37,male,6566,KoreanPoliteness_INT_KOR_KU,101,27,1,11/23/15,male,2,2,BlockProc,SpeakerBlocks,1,1,2,1,26,8,Orig,5,0,8,2,2801,2,F0eq_Int_Orig_1_2_con.wav,1,34,2,66,34,male,6567,KoreanPoliteness_INT_KOR_KU,101,27,1,11/23/15,male,2,2,BlockProc,SpeakerBlocks,1,1,2,1,27,8,5Perc,3,1,8,8,862,1,F0eq_LoInt_5Perc_1_1_con.wav,1,17,2,67,17,male,6268,KoreanPoliteness_INT_KOR_KU,101,27,1,11/23/15,male,2,2,BlockProc,SpeakerBlocks,1,1,2,1,28,8,10Perc,1,1,8,8,647,6,F0eq_LoInt_10Perc_1_6_con.wav,1,5,2,68,5,male,5969,KoreanPoliteness_INT_KOR_KU,101,27,1,11/23/15,male,2,2,BlockProc,SpeakerBlocks,1,1,2,1,29,8,5Perc,3,1,8,8,1615,10,F0eq_LoInt_5Perc_1_10_con.wav,1,24,2,69,24,male,6170,KoreanPoliteness_INT_KOR_KU,101,27,1,11/23/15,male,2,2,BlockProc,SpeakerBlocks,1,1,2,1,30,8,Orig,5,0,8,2,398,4,F0eq_Int_Orig_1_4_con.wav,1,35,2,70,35,male,6871,KoreanPoliteness_INT_KOR_KU,101,27,1,11/23/15,male,2,2,BlockProc,SpeakerBlocks,1,1,2,1,31,8,5Perc,3,1,8,8,2638,9,F0eq_LoInt_5Perc_1_9_con.wav,1,23,2,71,23,male,6472,KoreanPoliteness_INT_KOR_KU,101,27,1,11/23/15,male,2,2,BlockProc,SpeakerBlocks,1,1,2,1,32,8,2halfPerc,4,0,8,2,368,4,F0eq_LoInt_2halfPerc_1_4_con.wav,1,27,2,72,27,male,6673,KoreanPoliteness_INT_KOR_KU,101,27,1,11/23/15,male,2,2,BlockProc,SpeakerBlocks,1,1,2,1,33,8,10Perc,1,1,8,8,2667,7,F0eq_LoInt_10Perc_1_7_con.wav,1,6,2,73,6,male,6474,KoreanPoliteness_INT_KOR_KU,101,27,1,11/23/15,male,2,2,BlockProc,SpeakerBlocks,1,1,2,1,34,8,Orig,5,1,8,8,2550,1,F0eq_Int_Orig_1_1_con.wav,1,33,2,74,33,male,6575,KoreanPoliteness_INT_KOR_KU,101,27,1,11/23/15,male,2,2,BlockProc,SpeakerBlocks,1,1,2,1,35,8,10Perc,1,1,8,8,264,1,F0eq_LoInt_10Perc_1_1_con.wav,1,1,2,75,1,male,5976,KoreanPoliteness_INT_KOR_KU,101,27,1,11/23/15,male,2,2,BlockProc,SpeakerBlocks,1,1,2,1,36,8,2halfPerc,4,0,8,2,167,7,F0eq_LoInt_2halfPerc_1_7_con.wav,1,30,2,76,30,male,7077,KoreanPoliteness_INT_KOR_KU,101,27,1,11/23/15,male,2,2,BlockProc,SpeakerBlocks,1,1,2,1,37,8,10Perc,1,1,8,8,1063,2,F0eq_LoInt_10Perc_1_2_con.wav,1,2,2,77,2,male,5978,KoreanPoliteness_INT_KOR_KU,101,27,1,11/23/15,male,2,2,BlockProc,SpeakerBlocks,1,1,2,1,38,8,10Perc,1,0,8,2,1486,4,F0eq_LoInt_10Perc_1_4_con.wav,1,3,2,78,3,male,6179,KoreanPoliteness_INT_KOR_KU,101,27,1,11/23/15,male,2,2,BlockProc,SpeakerBlocks,1,1,2,1,39,8,2halfPerc,4,1,8,8,2908,9,F0eq_LoInt_2halfPerc_1_9_con.wav,1,31,2,79,31,male,6580,KoreanPoliteness_INT_KOR_KU,101,27,1,11/23/15,male,2,2,BlockProc,SpeakerBlocks,1,1,2,1,40,8,Orig,5,0,8,2,1283,9,F0eq_Int_Orig_1_9_con.wav,1,39,2,80,39,male,6781,KoreanPoliteness_INT_KOR_KU,101,27,1,11/23/15,male,2,3,BlockProc,SpeakerBlocks,6,1,3,6,1,8,10Perc,1,0,8,2,1609,2,F0eq_LoInt_10Perc_6_2_con.wav,6,2,3,81,2,female,6682,KoreanPoliteness_INT_KOR_KU,101,27,1,11/23/15,male,2,3,BlockProc,SpeakerBlocks,6,1,3,6,2,8,2halfPerc,4,0,8,2,206,5,F0eq_LoInt_2halfPerc_6_5_con.wav,6,28,3,82,28,female,7283,KoreanPoliteness_INT_KOR_KU,101,27,1,11/23/15,male,2,3,BlockProc,SpeakerBlocks,6,1,3,6,3,8,7halfPerc,2,0,8,2,2281,2,F0eq_LoInt_7halfPerc_6_2_con.wav,6,10,3,83,10,female,6884,KoreanPoliteness_INT_KOR_KU,101,27,1,11/23/15,male,2,3,BlockProc,SpeakerBlocks,6,1,3,6,4,8,10Perc,1,1,8,8,2207,1,F0eq_LoInt_10Perc_6_1_con.wav,6,1,3,84,1,female,6685,KoreanPoliteness_INT_KOR_KU,101,27,1,11/23/15,male,2,3,BlockProc,SpeakerBlocks,6,1,3,6,5,8,2halfPerc,4,1,8,8,1048,4,F0eq_LoInt_2halfPerc_6_4_con.wav,6,27,3,85,27,female,7286,KoreanPoliteness_INT_KOR_KU,101,27,1,11/23/15,male,2,3,BlockProc,SpeakerBlocks,6,1,3,6,6,8,7halfPerc,2,1,8,8,381,4,F0eq_LoInt_7halfPerc_6_4_con.wav,6,11,3,86,11,female,6887,KoreanPoliteness_INT_KOR_KU,101,27,1,11/23/15,male,2,3,BlockProc,SpeakerBlocks,6,1,3,6,7,8,10Perc,1,1,8,8,175,4,F0eq_LoInt_10Perc_6_4_con.wav,6,3,3,87,3,female,6788,KoreanPoliteness_INT_KOR_KU,101,27,1,11/23/15,male,2,3,BlockProc,SpeakerBlocks,6,1,3,6,8,8,2halfPerc,4,0,8,2,1649,1,F0eq_LoInt_2halfPerc_6_1_con.wav,6,25,3,88,25,female,7289,KoreanPoliteness_INT_KOR_KU,101,27,1,11/23/15,male,2,3,BlockProc,SpeakerBlocks,6,1,3,6,9,8,7halfPerc,2,0,8,2,37,5,F0eq_LoInt_7halfPerc_6_5_con.wav,6,12,3,89,12,female,6990,KoreanPoliteness_INT_KOR_KU,101,27,1,11/23/15,male,2,3,BlockProc,SpeakerBlocks,6,1,3,6,10,8,10Perc,1,0,8,2,273,10,F0eq_LoInt_10Perc_6_10_con.wav,6,8,3,90,8,female,6791,KoreanPoliteness_INT_KOR_KU,101,27,1,11/23/15,male,2,3,BlockProc,SpeakerBlocks,6,1,3,6,11,8,7halfPerc,2,1,8,8,300,9,F0eq_LoInt_7halfPerc_6_9_con.wav,6,15,3,91,15,female,6992,KoreanPoliteness_INT_KOR_KU,101,27,1,11/23/15,male,2,3,BlockProc,SpeakerBlocks,6,1,3,6,12,8,10Perc,1,1,8,8,933,7,F0eq_LoInt_10Perc_6_7_con.wav,6,6,3,92,6,female,6593,KoreanPoliteness_INT_KOR_KU,101,27,1,11/23/15,male,2,3,BlockProc,SpeakerBlocks,6,1,3,6,13,8,Orig,5,0,8,2,1479,9,F0eq_Int_Orig_6_9_con.wav,6,39,3,93,39,female,7594,KoreanPoliteness_INT_KOR_KU,101,27,1,11/23/15,male,2,3,BlockProc,SpeakerBlocks,6,1,3,6,14,8,2halfPerc,4,0,8,2,2863,7,F0eq_LoInt_2halfPerc_6_7_con.wav,6,30,3,94,30,female,7195,KoreanPoliteness_INT_KOR_KU,101,27,1,11/23/15,male,2,3,BlockProc,SpeakerBlocks,6,1,3,6,15,8,5Perc,3,1,8,8,1398,7,F0eq_LoInt_5Perc_6_7_con.wav,6,22,3,95,22,female,6996,KoreanPoliteness_INT_KOR_KU,101,27,1,11/23/15,male,2,3,BlockProc,SpeakerBlocks,6,1,3,6,16,8,5Perc,3,1,8,8,2250,2,F0eq_LoInt_5Perc_6_2_con.wav,6,18,3,96,18,female,7097,KoreanPoliteness_INT_KOR_KU,101,27,1,11/23/15,male,2,3,BlockProc,SpeakerBlocks,6,1,3,6,17,8,2halfPerc,4,0,8,2,373,6,F0eq_LoInt_2halfPerc_6_6_con.wav,6,29,3,97,29,female,7298,KoreanPoliteness_INT_KOR_KU,101,27,1,11/23/15,male,2,3,BlockProc,SpeakerBlocks,6,1,3,6,18,8,5Perc,3,1,8,8,853,4,F0eq_LoInt_5Perc_6_4_con.wav,6,19,3,98,19,female,7099,KoreanPoliteness_INT_KOR_KU,101,27,1,11/23/15,male,2,3,BlockProc,SpeakerBlocks,6,1,3,6,19,8,7halfPerc,2,0,8,2,233,10,F0eq_LoInt_7halfPerc_6_10_con.wav,6,16,3,99,16,female,69100,KoreanPoliteness_INT_KOR_KU,101,27,1,11/23/15,male,2,3,BlockProc,SpeakerBlocks,6,1,3,6,20,8,Orig,5,0,8,2,1518,2,F0eq_Int_Orig_6_2_con.wav,6,34,3,100,34,female,74101,KoreanPoliteness_INT_KOR_KU,101,27,1,11/23/15,male,2,3,BlockProc,SpeakerBlocks,6,1,3,6,21,8,2halfPerc,4,1,8,8,1086,9,F0eq_LoInt_2halfPerc_6_9_con.wav,6,31,3,101,31,female,73102,KoreanPoliteness_INT_KOR_KU,101,27,1,11/23/15,male,2,3,BlockProc,SpeakerBlocks,6,1,3,6,22,8,10Perc,1,1,8,8,294,9,F0eq_LoInt_10Perc_6_9_con.wav,6,7,3,102,7,female,67103,KoreanPoliteness_INT_KOR_KU,101,27,1,11/23/15,male,2,3,BlockProc,SpeakerBlocks,6,1,3,6,23,8,10Perc,1,0,8,2,118,5,F0eq_LoInt_10Perc_6_5_con.wav,6,4,3,103,4,female,67104,KoreanPoliteness_INT_KOR_KU,101,27,1,11/23/15,male,2,3,BlockProc,SpeakerBlocks,6,1,3,6,24,8,Orig,5,0,8,2,187,6,F0eq_Int_Orig_6_6_con.wav,6,37,3,104,37,female,74105,KoreanPoliteness_INT_KOR_KU,101,27,1,11/23/15,male,2,3,BlockProc,SpeakerBlocks,6,1,3,6,25,8,Orig,5,0,8,2,233,10,F0eq_Int_Orig_6_10_con.wav,6,40,3,105,40,female,75106,KoreanPoliteness_INT_KOR_KU,101,27,1,11/23/15,male,2,3,BlockProc,SpeakerBlocks,6,1,3,6,26,8,5Perc,3,1,8,8,197,1,F0eq_LoInt_5Perc_6_1_con.wav,6,17,3,106,17,female,70107,KoreanPoliteness_INT_KOR_KU,101,27,1,11/23/15,male,2,3,BlockProc,SpeakerBlocks,6,1,3,6,27,8,5Perc,3,0,8,2,333,6,F0eq_LoInt_5Perc_6_6_con.wav,6,21,3,107,21,female,70108,KoreanPoliteness_INT_KOR_KU,101,27,1,11/23/15,male,2,3,BlockProc,SpeakerBlocks,6,1,3,6,28,8,Orig,5,0,8,2,203,5,F0eq_Int_Orig_6_5_con.wav,6,36,3,108,36,female,74109,KoreanPoliteness_INT_KOR_KU,101,27,1,11/23/15,male,2,3,BlockProc,SpeakerBlocks,6,1,3,6,29,8,5Perc,3,0,8,2,654,10,F0eq_LoInt_5Perc_6_10_con.wav,6,24,3,109,24,female,71110,KoreanPoliteness_INT_KOR_KU,101,27,1,11/23/15,male,2,3,BlockProc,SpeakerBlocks,6,1,3,6,30,8,Orig,5,1,8,8,257,7,F0eq_Int_Orig_6_7_con.wav,6,38,3,110,38,female,72111,KoreanPoliteness_INT_KOR_KU,101,27,1,11/23/15,male,2,3,BlockProc,SpeakerBlocks,6,1,3,6,31,8,5Perc,3,1,8,8,227,9,F0eq_LoInt_5Perc_6_9_con.wav,6,23,3,111,23,female,71112,KoreanPoliteness_INT_KOR_KU,101,27,1,11/23/15,male,2,3,BlockProc,SpeakerBlocks,6,1,3,6,32,8,2halfPerc,4,0,8,2,222,10,F0eq_LoInt_2halfPerc_6_10_con.wav,6,32,3,112,32,female,73113,KoreanPoliteness_INT_KOR_KU,101,27,1,11/23/15,male,2,3,BlockProc,SpeakerBlocks,6,1,3,6,33,8,2halfPerc,4,1,8,8,789,2,F0eq_LoInt_2halfPerc_6_2_con.wav,6,26,3,113,26,female,72114,KoreanPoliteness_INT_KOR_KU,101,27,1,11/23/15,male,2,3,BlockProc,SpeakerBlocks,6,1,3,6,34,8,7halfPerc,2,1,8,8,207,1,F0eq_LoInt_7halfPerc_6_1_con.wav,6,9,3,114,9,female,68115,KoreanPoliteness_INT_KOR_KU,101,27,1,11/23/15,male,2,3,BlockProc,SpeakerBlocks,6,1,3,6,35,8,Orig,5,1,8,8,200,1,F0eq_Int_Orig_6_1_con.wav,6,33,3,115,33,female,74116,KoreanPoliteness_INT_KOR_KU,101,27,1,11/23/15,male,2,3,BlockProc,SpeakerBlocks,6,1,3,6,36,8,7halfPerc,2,1,8,8,145,7,F0eq_LoInt_7halfPerc_6_7_con.wav,6,14,3,116,14,female,67117,KoreanPoliteness_INT_KOR_KU,101,27,1,11/23/15,male,2,3,BlockProc,SpeakerBlocks,6,1,3,6,37,8,7halfPerc,2,0,8,2,221,6,F0eq_LoInt_7halfPerc_6_6_con.wav,6,13,3,117,13,female,69118,KoreanPoliteness_INT_KOR_KU,101,27,1,11/23/15,male,2,3,BlockProc,SpeakerBlocks,6,1,3,6,38,8,10Perc,1,0,8,2,199,6,F0eq_LoInt_10Perc_6_6_con.wav,6,5,3,118,5,female,67119,KoreanPoliteness_INT_KOR_KU,101,27,1,11/23/15,male,2,3,BlockProc,SpeakerBlocks,6,1,3,6,39,8,Orig,5,1,8,8,34,4,F0eq_Int_Orig_6_4_con.wav,6,35,3,119,35,female,74120,KoreanPoliteness_INT_KOR_KU,101,27,1,11/23/15,male,2,3,BlockProc,SpeakerBlocks,6,1,3,6,40,8,5Perc,3,0,8,2,285,5,F0eq_LoInt_5Perc_6_5_con.wav,6,20,3,120,20,female,71121,KoreanPoliteness_INT_KOR_KU,101,27,1,11/23/15,male,2,4,BlockProc,SpeakerBlocks,8,1,4,8,1,8,Orig,5,1,8,8,2155,4,F0eq_Int_Orig_8_4_con.wav,8,35,4,121,35,male,72122,KoreanPoliteness_INT_KOR_KU,101,27,1,11/23/15,male,2,4,BlockProc,SpeakerBlocks,8,1,4,8,2,8,Orig,5,0,8,2,1395,7,F0eq_Int_Orig_8_7_con.wav,8,38,4,122,38,male,71123,KoreanPoliteness_INT_KOR_KU,101,27,1,11/23/15,male,2,4,BlockProc,SpeakerBlocks,8,1,4,8,3,8,7halfPerc,2,0,8,2,388,10,F0eq_LoInt_7halfPerc_8_10_con.wav,8,16,4,123,16,male,67124,KoreanPoliteness_INT_KOR_KU,101,27,1,11/23/15,male,2,4,BlockProc,SpeakerBlocks,8,1,4,8,4,8,7halfPerc,2,0,8,2,401,6,F0eq_LoInt_7halfPerc_8_6_con.wav,8,13,4,124,13,male,66125,KoreanPoliteness_INT_KOR_KU,101,27,1,11/23/15,male,2,4,BlockProc,SpeakerBlocks,8,1,4,8,5,8,2halfPerc,4,0,8,2,1015,2,F0eq_LoInt_2halfPerc_8_2_con.wav,8,26,4,125,26,male,68126,KoreanPoliteness_INT_KOR_KU,101,27,1,11/23/15,male,2,4,BlockProc,SpeakerBlocks,8,1,4,8,6,8,5Perc,3,1,8,8,382,4,F0eq_LoInt_5Perc_8_4_con.wav,8,19,4,126,19,male,68127,KoreanPoliteness_INT_KOR_KU,101,27,1,11/23/15,male,2,4,BlockProc,SpeakerBlocks,8,1,4,8,7,8,2halfPerc,4,0,8,2,2062,6,F0eq_LoInt_2halfPerc_8_6_con.wav,8,29,4,127,29,male,70128,KoreanPoliteness_INT_KOR_KU,101,27,1,11/23/15,male,2,4,BlockProc,SpeakerBlocks,8,1,4,8,8,8,10Perc,1,1,8,8,353,4,F0eq_LoInt_10Perc_8_4_con.wav,8,3,4,128,3,male,65129,KoreanPoliteness_INT_KOR_KU,101,27,1,11/23/15,male,2,4,BlockProc,SpeakerBlocks,8,1,4,8,9,8,Orig,5,0,8,2,264,1,F0eq_Int_Orig_8_1_con.wav,8,33,4,129,33,male,67130,KoreanPoliteness_INT_KOR_KU,101,27,1,11/23/15,male,2,4,BlockProc,SpeakerBlocks,8,1,4,8,10,8,7halfPerc,2,0,8,2,1295,9,F0eq_LoInt_7halfPerc_8_9_con.wav,8,15,4,130,15,male,68131,KoreanPoliteness_INT_KOR_KU,101,27,1,11/23/15,male,2,4,BlockProc,SpeakerBlocks,8,1,4,8,11,8,2halfPerc,4,0,8,2,481,9,F0eq_LoInt_2halfPerc_8_9_con.wav,8,31,4,131,31,male,71132,KoreanPoliteness_INT_KOR_KU,101,27,1,11/23/15,male,2,4,BlockProc,SpeakerBlocks,8,1,4,8,12,8,2halfPerc,4,0,8,2,775,1,F0eq_LoInt_2halfPerc_8_1_con.wav,8,25,4,132,25,male,65133,KoreanPoliteness_INT_KOR_KU,101,27,1,11/23/15,male,2,4,BlockProc,SpeakerBlocks,8,1,4,8,13,8,10Perc,1,0,8,2,281,1,F0eq_LoInt_10Perc_8_1_con.wav,8,1,4,133,1,male,60134,KoreanPoliteness_INT_KOR_KU,101,27,1,11/23/15,male,2,4,BlockProc,SpeakerBlocks,8,1,4,8,14,8,10Perc,1,0,8,2,596,6,F0eq_LoInt_10Perc_8_6_con.wav,8,5,4,134,5,male,65135,KoreanPoliteness_INT_KOR_KU,101,27,1,11/23/15,male,2,4,BlockProc,SpeakerBlocks,8,1,4,8,15,8,10Perc,1,0,8,2,320,9,F0eq_LoInt_10Perc_8_9_con.wav,8,7,4,135,7,male,66136,KoreanPoliteness_INT_KOR_KU,101,27,1,11/23/15,male,2,4,BlockProc,SpeakerBlocks,8,1,4,8,16,8,7halfPerc,2,1,8,8,252,4,F0eq_LoInt_7halfPerc_8_4_con.wav,8,11,4,136,11,male,67137,KoreanPoliteness_INT_KOR_KU,101,27,1,11/23/15,male,2,4,BlockProc,SpeakerBlocks,8,1,4,8,17,8,5Perc,3,0,8,2,270,6,F0eq_LoInt_5Perc_8_6_con.wav,8,21,4,137,21,male,68138,KoreanPoliteness_INT_KOR_KU,101,27,1,11/23/15,male,2,4,BlockProc,SpeakerBlocks,8,1,4,8,18,8,5Perc,3,0,8,2,1083,7,F0eq_LoInt_5Perc_8_7_con.wav,8,22,4,138,22,male,68139,KoreanPoliteness_INT_KOR_KU,101,27,1,11/23/15,male,2,4,BlockProc,SpeakerBlocks,8,1,4,8,19,8,10Perc,1,0,8,2,262,10,F0eq_LoInt_10Perc_8_10_con.wav,8,8,4,139,8,male,65140,KoreanPoliteness_INT_KOR_KU,101,27,1,11/23/15,male,2,4,BlockProc,SpeakerBlocks,8,1,4,8,20,8,2halfPerc,4,0,8,2,341,7,F0eq_LoInt_2halfPerc_8_7_con.wav,8,30,4,140,30,male,70141,KoreanPoliteness_INT_KOR_KU,101,27,1,11/23/15,male,2,4,BlockProc,SpeakerBlocks,8,1,4,8,21,8,10Perc,1,1,8,8,402,2,F0eq_LoInt_10Perc_8_2_con.wav,8,2,4,141,2,male,63142,KoreanPoliteness_INT_KOR_KU,101,27,1,11/23/15,male,2,4,BlockProc,SpeakerBlocks,8,1,4,8,22,8,Orig,5,0,8,2,554,6,F0eq_Int_Orig_8_6_con.wav,8,37,4,142,37,male,72143,KoreanPoliteness_INT_KOR_KU,101,27,1,11/23/15,male,2,4,BlockProc,SpeakerBlocks,8,1,4,8,23,8,Orig,5,0,8,2,449,5,F0eq_Int_Orig_8_5_con.wav,8,36,4,143,36,male,70144,KoreanPoliteness_INT_KOR_KU,101,27,1,11/23/15,male,2,4,BlockProc,SpeakerBlocks,8,1,4,8,24,8,10Perc,1,0,8,2,693,5,F0eq_LoInt_10Perc_8_5_con.wav,8,4,4,144,4,male,63145,KoreanPoliteness_INT_KOR_KU,101,27,1,11/23/15,male,2,4,BlockProc,SpeakerBlocks,8,1,4,8,25,8,7halfPerc,2,0,8,2,263,2,F0eq_LoInt_7halfPerc_8_2_con.wav,8,10,4,145,10,male,64146,KoreanPoliteness_INT_KOR_KU,101,27,1,11/23/15,male,2,4,BlockProc,SpeakerBlocks,8,1,4,8,26,8,7halfPerc,2,0,8,2,228,1,F0eq_LoInt_7halfPerc_8_1_con.wav,8,9,4,146,9,male,62147,KoreanPoliteness_INT_KOR_KU,101,27,1,11/23/15,male,2,4,BlockProc,SpeakerBlocks,8,1,4,8,27,8,10Perc,1,0,8,2,239,7,F0eq_LoInt_10Perc_8_7_con.wav,8,6,4,147,6,male,64148,KoreanPoliteness_INT_KOR_KU,101,27,1,11/23/15,male,2,4,BlockProc,SpeakerBlocks,8,1,4,8,28,8,Orig,5,1,8,8,1959,2,F0eq_Int_Orig_8_2_con.wav,8,34,4,148,34,male,70149,KoreanPoliteness_INT_KOR_KU,101,27,1,11/23/15,male,2,4,BlockProc,SpeakerBlocks,8,1,4,8,29,8,2halfPerc,4,0,8,2,348,5,F0eq_LoInt_2halfPerc_8_5_con.wav,8,28,4,149,28,male,68150,KoreanPoliteness_INT_KOR_KU,101,27,1,11/23/15,male,2,4,BlockProc,SpeakerBlocks,8,1,4,8,30,8,5Perc,3,0,8,2,745,2,F0eq_LoInt_5Perc_8_2_con.wav,8,18,4,150,18,male,66151,KoreanPoliteness_INT_KOR_KU,101,27,1,11/23/15,male,2,4,BlockProc,SpeakerBlocks,8,1,4,8,31,8,2halfPerc,4,0,8,2,403,10,F0eq_LoInt_2halfPerc_8_10_con.wav,8,32,4,151,32,male,71152,KoreanPoliteness_INT_KOR_KU,101,27,1,11/23/15,male,2,4,BlockProc,SpeakerBlocks,8,1,4,8,32,8,5Perc,3,0,8,2,637,9,F0eq_LoInt_5Perc_8_9_con.wav,8,23,4,152,23,male,69153,KoreanPoliteness_INT_KOR_KU,101,27,1,11/23/15,male,2,4,BlockProc,SpeakerBlocks,8,1,4,8,33,8,Orig,5,0,8,2,138,9,F0eq_Int_Orig_8_9_con.wav,8,39,4,153,39,male,73154,KoreanPoliteness_INT_KOR_KU,101,27,1,11/23/15,male,2,4,BlockProc,SpeakerBlocks,8,1,4,8,34,8,5Perc,3,0,8,2,477,10,F0eq_LoInt_5Perc_8_10_con.wav,8,24,4,154,24,male,69155,KoreanPoliteness_INT_KOR_KU,101,27,1,11/23/15,male,2,4,BlockProc,SpeakerBlocks,8,1,4,8,35,8,5Perc,3,1,8,8,2309,1,F0eq_LoInt_5Perc_8_1_con.wav,8,17,4,155,17,male,64156,KoreanPoliteness_INT_KOR_KU,101,27,1,11/23/15,male,2,4,BlockProc,SpeakerBlocks,8,1,4,8,36,8,Orig,5,0,8,2,127,10,F0eq_Int_Orig_8_10_con.wav,8,40,4,156,40,male,72157,KoreanPoliteness_INT_KOR_KU,101,27,1,11/23/15,male,2,4,BlockProc,SpeakerBlocks,8,1,4,8,37,8,7halfPerc,2,1,8,8,1050,5,F0eq_LoInt_7halfPerc_8_5_con.wav,8,12,4,157,12,male,65158,KoreanPoliteness_INT_KOR_KU,101,27,1,11/23/15,male,2,4,BlockProc,SpeakerBlocks,8,1,4,8,38,8,7halfPerc,2,0,8,2,977,7,F0eq_LoInt_7halfPerc_8_7_con.wav,8,14,4,158,14,male,66159,KoreanPoliteness_INT_KOR_KU,101,27,1,11/23/15,male,2,4,BlockProc,SpeakerBlocks,8,1,4,8,39,8,5Perc,3,0,8,2,2373,5,F0eq_LoInt_5Perc_8_5_con.wav,8,20,4,159,20,male,67160,KoreanPoliteness_INT_KOR_KU,101,27,1,11/23/15,male,2,4,BlockProc,SpeakerBlocks,8,1,4,8,40,8,2halfPerc,4,1,8,8,264,4,F0eq_LoInt_2halfPerc_8_4_con.wav,8,27,4,160,27,male,70161,KoreanPoliteness_INT_KOR_KU,101,27,1,11/23/15,male,2,5,BlockProc,SpeakerBlocks,5,1,5,5,1,8,5Perc,3,1,8,8,2001,10,F0eq_LoInt_5Perc_5_10_con.wav,5,24,5,161,24,female,64162,KoreanPoliteness_INT_KOR_KU,101,27,1,11/23/15,male,2,5,BlockProc,SpeakerBlocks,5,1,5,5,2,8,5Perc,3,0,8,2,2594,2,F0eq_LoInt_5Perc_5_2_con.wav,5,18,5,162,18,female,65163,KoreanPoliteness_INT_KOR_KU,101,27,1,11/23/15,male,2,5,BlockProc,SpeakerBlocks,5,1,5,5,3,8,2halfPerc,4,1,8,8,267,4,F0eq_LoInt_2halfPerc_5_4_con.wav,5,27,5,163,27,female,67164,KoreanPoliteness_INT_KOR_KU,101,27,1,11/23/15,male,2,5,BlockProc,SpeakerBlocks,5,1,5,5,4,8,7halfPerc,2,1,8,8,603,9,F0eq_LoInt_7halfPerc_5_9_con.wav,5,15,5,164,15,female,66165,KoreanPoliteness_INT_KOR_KU,101,27,1,11/23/15,male,2,5,BlockProc,SpeakerBlocks,5,1,5,5,5,8,2halfPerc,4,1,8,8,1395,10,F0eq_LoInt_2halfPerc_5_10_con.wav,5,32,5,165,32,female,66166,KoreanPoliteness_INT_KOR_KU,101,27,1,11/23/15,male,2,5,BlockProc,SpeakerBlocks,5,1,5,5,6,8,Orig,5,1,8,8,600,4,F0eq_Int_Orig_5_4_con.wav,5,35,5,166,35,female,69167,KoreanPoliteness_INT_KOR_KU,101,27,1,11/23/15,male,2,5,BlockProc,SpeakerBlocks,5,1,5,5,7,8,2halfPerc,4,1,8,8,881,5,F0eq_LoInt_2halfPerc_5_5_con.wav,5,28,5,167,28,female,69168,KoreanPoliteness_INT_KOR_KU,101,27,1,11/23/15,male,2,5,BlockProc,SpeakerBlocks,5,1,5,5,8,8,5Perc,3,1,8,8,898,9,F0eq_LoInt_5Perc_5_9_con.wav,5,23,5,168,23,female,67169,KoreanPoliteness_INT_KOR_KU,101,27,1,11/23/15,male,2,5,BlockProc,SpeakerBlocks,5,1,5,5,9,8,Orig,5,1,8,8,947,10,F0eq_Int_Orig_5_10_con.wav,5,40,5,169,40,female,68170,KoreanPoliteness_INT_KOR_KU,101,27,1,11/23/15,male,2,5,BlockProc,SpeakerBlocks,5,1,5,5,10,8,2halfPerc,4,1,8,8,310,1,F0eq_LoInt_2halfPerc_5_1_con.wav,5,25,5,170,25,female,64171,KoreanPoliteness_INT_KOR_KU,101,27,1,11/23/15,male,2,5,BlockProc,SpeakerBlocks,5,1,5,5,11,8,2halfPerc,4,1,8,8,660,7,F0eq_LoInt_2halfPerc_5_7_con.wav,5,30,5,171,30,female,68172,KoreanPoliteness_INT_KOR_KU,101,27,1,11/23/15,male,2,5,BlockProc,SpeakerBlocks,5,1,5,5,12,8,5Perc,3,1,8,8,476,6,F0eq_LoInt_5Perc_5_6_con.wav,5,21,5,172,21,female,65173,KoreanPoliteness_INT_KOR_KU,101,27,1,11/23/15,male,2,5,BlockProc,SpeakerBlocks,5,1,5,5,13,8,7halfPerc,2,1,8,8,367,2,F0eq_LoInt_7halfPerc_5_2_con.wav,5,10,5,173,10,female,64174,KoreanPoliteness_INT_KOR_KU,101,27,1,11/23/15,male,2,5,BlockProc,SpeakerBlocks,5,1,5,5,14,8,Orig,5,0,8,2,279,7,F0eq_Int_Orig_5_7_con.wav,5,38,5,174,38,female,70175,KoreanPoliteness_INT_KOR_KU,101,27,1,11/23/15,male,2,5,BlockProc,SpeakerBlocks,5,1,5,5,15,8,7halfPerc,2,1,8,8,177,1,F0eq_LoInt_7halfPerc_5_1_con.wav,5,9,5,175,9,female,61176,KoreanPoliteness_INT_KOR_KU,101,27,1,11/23/15,male,2,5,BlockProc,SpeakerBlocks,5,1,5,5,16,8,10Perc,1,1,8,8,676,7,F0eq_LoInt_10Perc_5_7_con.wav,5,6,5,176,6,female,63177,KoreanPoliteness_INT_KOR_KU,101,27,1,11/23/15,male,2,5,BlockProc,SpeakerBlocks,5,1,5,5,17,8,5Perc,3,1,8,8,547,1,F0eq_LoInt_5Perc_5_1_con.wav,5,17,5,177,17,female,63178,KoreanPoliteness_INT_KOR_KU,101,27,1,11/23/15,male,2,5,BlockProc,SpeakerBlocks,5,1,5,5,18,8,10Perc,1,1,8,8,1856,9,F0eq_LoInt_10Perc_5_9_con.wav,5,7,5,178,7,female,64179,KoreanPoliteness_INT_KOR_KU,101,27,1,11/23/15,male,2,5,BlockProc,SpeakerBlocks,5,1,5,5,19,8,7halfPerc,2,1,8,8,1074,4,F0eq_LoInt_7halfPerc_5_4_con.wav,5,11,5,179,11,female,64180,KoreanPoliteness_INT_KOR_KU,101,27,1,11/23/15,male,2,5,BlockProc,SpeakerBlocks,5,1,5,5,20,8,5Perc,3,1,8,8,222,4,F0eq_LoInt_5Perc_5_4_con.wav,5,19,5,180,19,female,65181,KoreanPoliteness_INT_KOR_KU,101,27,1,11/23/15,male,2,5,BlockProc,SpeakerBlocks,5,1,5,5,21,8,7halfPerc,2,1,8,8,816,7,F0eq_LoInt_7halfPerc_5_7_con.wav,5,14,5,181,14,female,65182,KoreanPoliteness_INT_KOR_KU,101,27,1,11/23/15,male,2,5,BlockProc,SpeakerBlocks,5,1,5,5,22,8,Orig,5,0,8,2,250,5,F0eq_Int_Orig_5_5_con.wav,5,36,5,182,36,female,70183,KoreanPoliteness_INT_KOR_KU,101,27,1,11/23/15,male,2,5,BlockProc,SpeakerBlocks,5,1,5,5,23,8,7halfPerc,2,1,8,8,209,10,F0eq_LoInt_7halfPerc_5_10_con.wav,5,16,5,183,16,female,63184,KoreanPoliteness_INT_KOR_KU,101,27,1,11/23/15,male,2,5,BlockProc,SpeakerBlocks,5,1,5,5,24,8,2halfPerc,4,1,8,8,1660,2,F0eq_LoInt_2halfPerc_5_2_con.wav,5,26,5,184,26,female,67185,KoreanPoliteness_INT_KOR_KU,101,27,1,11/23/15,male,2,5,BlockProc,SpeakerBlocks,5,1,5,5,25,8,5Perc,3,0,8,2,98,5,F0eq_LoInt_5Perc_5_5_con.wav,5,20,5,185,20,female,67186,KoreanPoliteness_INT_KOR_KU,101,27,1,11/23/15,male,2,5,BlockProc,SpeakerBlocks,5,1,5,5,26,8,7halfPerc,2,0,8,2,1302,6,F0eq_LoInt_7halfPerc_5_6_con.wav,5,13,5,186,13,female,63187,KoreanPoliteness_INT_KOR_KU,101,27,1,11/23/15,male,2,5,BlockProc,SpeakerBlocks,5,1,5,5,27,8,Orig,5,1,8,8,168,1,F0eq_Int_Orig_5_1_con.wav,5,33,5,187,33,female,66188,KoreanPoliteness_INT_KOR_KU,101,27,1,11/23/15,male,2,5,BlockProc,SpeakerBlocks,5,1,5,5,28,8,Orig,5,0,8,2,166,2,F0eq_Int_Orig_5_2_con.wav,5,34,5,188,34,female,69189,KoreanPoliteness_INT_KOR_KU,101,27,1,11/23/15,male,2,5,BlockProc,SpeakerBlocks,5,1,5,5,29,8,2halfPerc,4,0,8,2,158,9,F0eq_LoInt_2halfPerc_5_9_con.wav,5,31,5,189,31,female,69190,KoreanPoliteness_INT_KOR_KU,101,27,1,11/23/15,male,2,5,BlockProc,SpeakerBlocks,5,1,5,5,30,8,5Perc,3,1,8,8,479,7,F0eq_LoInt_5Perc_5_7_con.wav,5,22,5,190,22,female,66191,KoreanPoliteness_INT_KOR_KU,101,27,1,11/23/15,male,2,5,BlockProc,SpeakerBlocks,5,1,5,5,31,8,10Perc,1,0,8,2,1052,10,F0eq_LoInt_10Perc_5_10_con.wav,5,8,5,191,8,female,61192,KoreanPoliteness_INT_KOR_KU,101,27,1,11/23/15,male,2,5,BlockProc,SpeakerBlocks,5,1,5,5,32,8,10Perc,1,1,8,8,840,4,F0eq_LoInt_10Perc_5_4_con.wav,5,3,5,192,3,female,62193,KoreanPoliteness_INT_KOR_KU,101,27,1,11/23/15,male,2,5,BlockProc,SpeakerBlocks,5,1,5,5,33,8,7halfPerc,2,1,8,8,713,5,F0eq_LoInt_7halfPerc_5_5_con.wav,5,12,5,193,12,female,65194,KoreanPoliteness_INT_KOR_KU,101,27,1,11/23/15,male,2,5,BlockProc,SpeakerBlocks,5,1,5,5,34,8,2halfPerc,4,0,8,2,1742,6,F0eq_LoInt_2halfPerc_5_6_con.wav,5,29,5,194,29,female,67195,KoreanPoliteness_INT_KOR_KU,101,27,1,11/23/15,male,2,5,BlockProc,SpeakerBlocks,5,1,5,5,35,8,10Perc,1,1,8,8,203,2,F0eq_LoInt_10Perc_5_2_con.wav,5,2,5,195,2,female,62196,KoreanPoliteness_INT_KOR_KU,101,27,1,11/23/15,male,2,5,BlockProc,SpeakerBlocks,5,1,5,5,36,8,Orig,5,0,8,2,95,9,F0eq_Int_Orig_5_9_con.wav,5,39,5,196,39,female,71197,KoreanPoliteness_INT_KOR_KU,101,27,1,11/23/15,male,2,5,BlockProc,SpeakerBlocks,5,1,5,5,37,8,10Perc,1,0,8,2,1075,5,F0eq_LoInt_10Perc_5_5_con.wav,5,4,5,197,4,female,63198,KoreanPoliteness_INT_KOR_KU,101,27,1,11/23/15,male,2,5,BlockProc,SpeakerBlocks,5,1,5,5,38,8,10Perc,1,1,8,8,1869,6,F0eq_LoInt_10Perc_5_6_con.wav,5,5,5,198,5,female,62199,KoreanPoliteness_INT_KOR_KU,101,27,1,11/23/15,male,2,5,BlockProc,SpeakerBlocks,5,1,5,5,39,8,10Perc,1,1,8,8,213,1,F0eq_LoInt_10Perc_5_1_con.wav,5,1,5,199,1,female,59200,KoreanPoliteness_INT_KOR_KU,101,27,1,11/23/15,male,2,5,BlockProc,SpeakerBlocks,5,1,5,5,40,8,Orig,5,0,8,2,231,6,F0eq_Int_Orig_5_6_con.wav,5,37,5,200,37,female,69201,KoreanPoliteness_INT_KOR_KU,101,27,1,11/23/15,male,2,6,BlockProc,SpeakerBlocks,3,1,6,3,1,8,Orig,5,1,8,8,2192,4,F0eq_Int_Orig_3_4_con.wav,3,35,6,201,35,male,70202,KoreanPoliteness_INT_KOR_KU,101,27,1,11/23/15,male,2,6,BlockProc,SpeakerBlocks,3,1,6,3,2,8,5Perc,3,0,8,2,1860,1,F0eq_LoInt_5Perc_3_1_con.wav,3,17,6,202,17,male,66203,KoreanPoliteness_INT_KOR_KU,101,27,1,11/23/15,male,2,6,BlockProc,SpeakerBlocks,3,1,6,3,3,8,10Perc,1,0,8,2,449,6,F0eq_LoInt_10Perc_3_6_con.wav,3,5,6,203,5,male,61204,KoreanPoliteness_INT_KOR_KU,101,27,1,11/23/15,male,2,6,BlockProc,SpeakerBlocks,3,1,6,3,4,8,Orig,5,0,8,2,350,9,F0eq_Int_Orig_3_9_con.wav,3,39,6,204,39,male,69205,KoreanPoliteness_INT_KOR_KU,101,27,1,11/23/15,male,2,6,BlockProc,SpeakerBlocks,3,1,6,3,5,8,2halfPerc,4,0,8,2,397,10,F0eq_LoInt_2halfPerc_3_10_con.wav,3,32,6,205,32,male,68206,KoreanPoliteness_INT_KOR_KU,101,27,1,11/23/15,male,2,6,BlockProc,SpeakerBlocks,3,1,6,3,6,8,7halfPerc,2,1,8,8,575,1,F0eq_LoInt_7halfPerc_3_1_con.wav,3,9,6,206,9,male,64207,KoreanPoliteness_INT_KOR_KU,101,27,1,11/23/15,male,2,6,BlockProc,SpeakerBlocks,3,1,6,3,7,8,10Perc,1,0,8,2,305,5,F0eq_LoInt_10Perc_3_5_con.wav,3,4,6,207,4,male,60208,KoreanPoliteness_INT_KOR_KU,101,27,1,11/23/15,male,2,6,BlockProc,SpeakerBlocks,3,1,6,3,8,8,5Perc,3,0,8,2,129,5,F0eq_LoInt_5Perc_3_5_con.wav,3,20,6,208,20,male,63209,KoreanPoliteness_INT_KOR_KU,101,27,1,11/23/15,male,2,6,BlockProc,SpeakerBlocks,3,1,6,3,9,8,10Perc,1,0,8,2,559,2,F0eq_LoInt_10Perc_3_2_con.wav,3,2,6,209,2,male,61210,KoreanPoliteness_INT_KOR_KU,101,27,1,11/23/15,male,2,6,BlockProc,SpeakerBlocks,3,1,6,3,10,8,10Perc,1,0,8,2,360,4,F0eq_LoInt_10Perc_3_4_con.wav,3,3,6,210,3,male,63211,KoreanPoliteness_INT_KOR_KU,101,27,1,11/23/15,male,2,6,BlockProc,SpeakerBlocks,3,1,6,3,11,8,2halfPerc,4,0,8,2,177,2,F0eq_LoInt_2halfPerc_3_2_con.wav,3,26,6,211,26,male,67212,KoreanPoliteness_INT_KOR_KU,101,27,1,11/23/15,male,2,6,BlockProc,SpeakerBlocks,3,1,6,3,12,8,10Perc,1,0,8,2,602,10,F0eq_LoInt_10Perc_3_10_con.wav,3,8,6,212,8,male,63213,KoreanPoliteness_INT_KOR_KU,101,27,1,11/23/15,male,2,6,BlockProc,SpeakerBlocks,3,1,6,3,13,8,5Perc,3,0,8,2,314,2,F0eq_LoInt_5Perc_3_2_con.wav,3,18,6,213,18,male,65214,KoreanPoliteness_INT_KOR_KU,101,27,1,11/23/15,male,2,6,BlockProc,SpeakerBlocks,3,1,6,3,14,8,Orig,5,0,8,2,1846,7,F0eq_Int_Orig_3_7_con.wav,3,38,6,214,38,male,68215,KoreanPoliteness_INT_KOR_KU,101,27,1,11/23/15,male,2,6,BlockProc,SpeakerBlocks,3,1,6,3,15,8,2halfPerc,4,1,8,8,707,4,F0eq_LoInt_2halfPerc_3_4_con.wav,3,27,6,215,27,male,68216,KoreanPoliteness_INT_KOR_KU,101,27,1,11/23/15,male,2,6,BlockProc,SpeakerBlocks,3,1,6,3,16,8,10Perc,1,0,8,2,1460,9,F0eq_LoInt_10Perc_3_9_con.wav,3,7,6,216,7,male,62217,KoreanPoliteness_INT_KOR_KU,101,27,1,11/23/15,male,2,6,BlockProc,SpeakerBlocks,3,1,6,3,17,8,10Perc,1,0,8,2,719,7,F0eq_LoInt_10Perc_3_7_con.wav,3,6,6,217,6,male,61218,KoreanPoliteness_INT_KOR_KU,101,27,1,11/23/15,male,2,6,BlockProc,SpeakerBlocks,3,1,6,3,18,8,5Perc,3,0,8,2,43,7,F0eq_LoInt_5Perc_3_7_con.wav,3,22,6,218,22,male,64219,KoreanPoliteness_INT_KOR_KU,101,27,1,11/23/15,male,2,6,BlockProc,SpeakerBlocks,3,1,6,3,19,8,Orig,5,0,8,2,324,1,F0eq_Int_Orig_3_1_con.wav,3,33,6,219,33,male,69220,KoreanPoliteness_INT_KOR_KU,101,27,1,11/23/15,male,2,6,BlockProc,SpeakerBlocks,3,1,6,3,20,8,7halfPerc,2,0,8,2,130,7,F0eq_LoInt_7halfPerc_3_7_con.wav,3,14,6,220,14,male,63221,KoreanPoliteness_INT_KOR_KU,101,27,1,11/23/15,male,2,6,BlockProc,SpeakerBlocks,3,1,6,3,21,8,5Perc,3,0,8,2,393,9,F0eq_LoInt_5Perc_3_9_con.wav,3,23,6,221,23,male,65222,KoreanPoliteness_INT_KOR_KU,101,27,1,11/23/15,male,2,6,BlockProc,SpeakerBlocks,3,1,6,3,22,8,7halfPerc,2,0,8,2,277,10,F0eq_LoInt_7halfPerc_3_10_con.wav,3,16,6,222,16,male,65223,KoreanPoliteness_INT_KOR_KU,101,27,1,11/23/15,male,2,6,BlockProc,SpeakerBlocks,3,1,6,3,23,8,2halfPerc,4,0,8,2,503,5,F0eq_LoInt_2halfPerc_3_5_con.wav,3,28,6,223,28,male,65224,KoreanPoliteness_INT_KOR_KU,101,27,1,11/23/15,male,2,6,BlockProc,SpeakerBlocks,3,1,6,3,24,8,Orig,5,0,8,2,233,5,F0eq_Int_Orig_3_5_con.wav,3,36,6,224,36,male,66225,KoreanPoliteness_INT_KOR_KU,101,27,1,11/23/15,male,2,6,BlockProc,SpeakerBlocks,3,1,6,3,25,8,2halfPerc,4,0,8,2,325,7,F0eq_LoInt_2halfPerc_3_7_con.wav,3,30,6,225,30,male,66226,KoreanPoliteness_INT_KOR_KU,101,27,1,11/23/15,male,2,6,BlockProc,SpeakerBlocks,3,1,6,3,26,8,2halfPerc,4,0,8,2,327,9,F0eq_LoInt_2halfPerc_3_9_con.wav,3,31,6,226,31,male,67227,KoreanPoliteness_INT_KOR_KU,101,27,1,11/23/15,male,2,6,BlockProc,SpeakerBlocks,3,1,6,3,27,8,2halfPerc,4,1,8,8,1576,1,F0eq_LoInt_2halfPerc_3_1_con.wav,3,25,6,227,25,male,67228,KoreanPoliteness_INT_KOR_KU,101,27,1,11/23/15,male,2,6,BlockProc,SpeakerBlocks,3,1,6,3,28,8,5Perc,3,0,8,2,886,6,F0eq_LoInt_5Perc_3_6_con.wav,3,21,6,228,21,male,64229,KoreanPoliteness_INT_KOR_KU,101,27,1,11/23/15,male,2,6,BlockProc,SpeakerBlocks,3,1,6,3,29,8,5Perc,3,0,8,2,1103,10,F0eq_LoInt_5Perc_3_10_con.wav,3,24,6,229,24,male,67230,KoreanPoliteness_INT_KOR_KU,101,27,1,11/23/15,male,2,6,BlockProc,SpeakerBlocks,3,1,6,3,30,8,Orig,5,0,8,2,168,2,F0eq_Int_Orig_3_2_con.wav,3,34,6,230,34,male,68231,KoreanPoliteness_INT_KOR_KU,101,27,1,11/23/15,male,2,6,BlockProc,SpeakerBlocks,3,1,6,3,31,8,7halfPerc,2,1,8,8,1347,6,F0eq_LoInt_7halfPerc_3_6_con.wav,3,13,6,231,13,male,62232,KoreanPoliteness_INT_KOR_KU,101,27,1,11/23/15,male,2,6,BlockProc,SpeakerBlocks,3,1,6,3,32,8,7halfPerc,2,0,8,2,1877,5,F0eq_LoInt_7halfPerc_3_5_con.wav,3,12,6,232,12,male,61233,KoreanPoliteness_INT_KOR_KU,101,27,1,11/23/15,male,2,6,BlockProc,SpeakerBlocks,3,1,6,3,33,8,Orig,5,0,8,2,1561,10,F0eq_Int_Orig_3_10_con.wav,3,40,6,233,40,male,70234,KoreanPoliteness_INT_KOR_KU,101,27,1,11/23/15,male,2,6,BlockProc,SpeakerBlocks,3,1,6,3,34,8,7halfPerc,2,0,8,2,336,9,F0eq_LoInt_7halfPerc_3_9_con.wav,3,15,6,234,15,male,64235,KoreanPoliteness_INT_KOR_KU,101,27,1,11/23/15,male,2,6,BlockProc,SpeakerBlocks,3,1,6,3,35,8,7halfPerc,2,0,8,2,957,2,F0eq_LoInt_7halfPerc_3_2_con.wav,3,10,6,235,10,male,63236,KoreanPoliteness_INT_KOR_KU,101,27,1,11/23/15,male,2,6,BlockProc,SpeakerBlocks,3,1,6,3,36,8,10Perc,1,1,8,8,887,1,F0eq_LoInt_10Perc_3_1_con.wav,3,1,6,236,1,male,62237,KoreanPoliteness_INT_KOR_KU,101,27,1,11/23/15,male,2,6,BlockProc,SpeakerBlocks,3,1,6,3,37,8,5Perc,3,0,8,2,969,4,F0eq_LoInt_5Perc_3_4_con.wav,3,19,6,237,19,male,66238,KoreanPoliteness_INT_KOR_KU,101,27,1,11/23/15,male,2,6,BlockProc,SpeakerBlocks,3,1,6,3,38,8,2halfPerc,4,1,8,8,2054,6,F0eq_LoInt_2halfPerc_3_6_con.wav,3,29,6,238,29,male,66239,KoreanPoliteness_INT_KOR_KU,101,27,1,11/23/15,male,2,6,BlockProc,SpeakerBlocks,3,1,6,3,39,8,Orig,5,1,8,8,285,6,F0eq_Int_Orig_3_6_con.wav,3,37,6,239,37,male,67240,KoreanPoliteness_INT_KOR_KU,101,27,1,11/23/15,male,2,6,BlockProc,SpeakerBlocks,3,1,6,3,40,8,7halfPerc,2,0,8,2,1902,4,F0eq_LoInt_7halfPerc_3_4_con.wav,3,11,6,240,11,male,65241,KoreanPoliteness_INT_KOR_KU,101,27,1,11/23/15,male,2,7,BlockProc,SpeakerBlocks,2,1,7,2,1,8,Orig,5,0,8,2,1797,10,F0eq_Int_Orig_2_10_con.wav,2,40,7,241,40,female,60242,KoreanPoliteness_INT_KOR_KU,101,27,1,11/23/15,male,2,7,BlockProc,SpeakerBlocks,2,1,7,2,2,8,2halfPerc,4,1,8,8,373,7,F0eq_LoInt_2halfPerc_2_7_con.wav,2,30,7,242,30,female,58243,KoreanPoliteness_INT_KOR_KU,101,27,1,11/23/15,male,2,7,BlockProc,SpeakerBlocks,2,1,7,2,3,8,10Perc,1,1,8,8,303,5,F0eq_LoInt_10Perc_2_5_con.wav,2,4,7,243,4,female,54244,KoreanPoliteness_INT_KOR_KU,101,27,1,11/23/15,male,2,7,BlockProc,SpeakerBlocks,2,1,7,2,4,8,5Perc,3,1,8,8,263,5,F0eq_LoInt_5Perc_2_5_con.wav,2,20,7,244,20,female,57245,KoreanPoliteness_INT_KOR_KU,101,27,1,11/23/15,male,2,7,BlockProc,SpeakerBlocks,2,1,7,2,5,8,Orig,5,1,8,8,1195,7,F0eq_Int_Orig_2_7_con.wav,2,38,7,245,38,female,59246,KoreanPoliteness_INT_KOR_KU,101,27,1,11/23/15,male,2,7,BlockProc,SpeakerBlocks,2,1,7,2,6,8,5Perc,3,1,8,8,343,6,F0eq_LoInt_5Perc_2_6_con.wav,2,21,7,246,21,female,58247,KoreanPoliteness_INT_KOR_KU,101,27,1,11/23/15,male,2,7,BlockProc,SpeakerBlocks,2,1,7,2,7,8,2halfPerc,4,1,8,8,719,10,F0eq_LoInt_2halfPerc_2_10_con.wav,2,32,7,247,32,female,58248,KoreanPoliteness_INT_KOR_KU,101,27,1,11/23/15,male,2,7,BlockProc,SpeakerBlocks,2,1,7,2,8,8,10Perc,1,1,8,8,1121,4,F0eq_LoInt_10Perc_2_4_con.wav,2,3,7,248,3,female,56249,KoreanPoliteness_INT_KOR_KU,101,27,1,11/23/15,male,2,7,BlockProc,SpeakerBlocks,2,1,7,2,9,8,10Perc,1,1,8,8,223,1,F0eq_LoInt_10Perc_2_1_con.wav,2,1,7,249,1,female,53250,KoreanPoliteness_INT_KOR_KU,101,27,1,11/23/15,male,2,7,BlockProc,SpeakerBlocks,2,1,7,2,10,8,5Perc,3,1,8,8,396,4,F0eq_LoInt_5Perc_2_4_con.wav,2,19,7,250,19,female,59251,KoreanPoliteness_INT_KOR_KU,101,27,1,11/23/15,male,2,7,BlockProc,SpeakerBlocks,2,1,7,2,11,8,7halfPerc,2,1,8,8,2061,6,F0eq_LoInt_7halfPerc_2_6_con.wav,2,13,7,251,13,female,56252,KoreanPoliteness_INT_KOR_KU,101,27,1,11/23/15,male,2,7,BlockProc,SpeakerBlocks,2,1,7,2,12,8,5Perc,3,0,8,2,2112,2,F0eq_LoInt_5Perc_2_2_con.wav,2,18,7,252,18,female,57253,KoreanPoliteness_INT_KOR_KU,101,27,1,11/23/15,male,2,7,BlockProc,SpeakerBlocks,2,1,7,2,13,8,7halfPerc,2,1,8,8,350,7,F0eq_LoInt_7halfPerc_2_7_con.wav,2,14,7,253,14,female,55254,KoreanPoliteness_INT_KOR_KU,101,27,1,11/23/15,male,2,7,BlockProc,SpeakerBlocks,2,1,7,2,14,8,Orig,5,0,8,2,2000,4,F0eq_Int_Orig_2_4_con.wav,2,35,7,254,35,female,62255,KoreanPoliteness_INT_KOR_KU,101,27,1,11/23/15,male,2,7,BlockProc,SpeakerBlocks,2,1,7,2,15,8,2halfPerc,4,1,8,8,260,1,F0eq_LoInt_2halfPerc_2_1_con.wav,2,25,7,255,25,female,57256,KoreanPoliteness_INT_KOR_KU,101,27,1,11/23/15,male,2,7,BlockProc,SpeakerBlocks,2,1,7,2,16,8,5Perc,3,1,8,8,1002,7,F0eq_LoInt_5Perc_2_7_con.wav,2,22,7,256,22,female,57257,KoreanPoliteness_INT_KOR_KU,101,27,1,11/23/15,male,2,7,BlockProc,SpeakerBlocks,2,1,7,2,17,8,10Perc,1,1,8,8,306,6,F0eq_LoInt_10Perc_2_6_con.wav,2,5,7,257,5,female,55258,KoreanPoliteness_INT_KOR_KU,101,27,1,11/23/15,male,2,7,BlockProc,SpeakerBlocks,2,1,7,2,18,8,5Perc,3,1,8,8,206,1,F0eq_LoInt_5Perc_2_1_con.wav,2,17,7,258,17,female,56259,KoreanPoliteness_INT_KOR_KU,101,27,1,11/23/15,male,2,7,BlockProc,SpeakerBlocks,2,1,7,2,19,8,10Perc,1,1,8,8,1447,10,F0eq_LoInt_10Perc_2_10_con.wav,2,8,7,259,8,female,54260,KoreanPoliteness_INT_KOR_KU,101,27,1,11/23/15,male,2,7,BlockProc,SpeakerBlocks,2,1,7,2,20,8,Orig,5,0,8,2,578,2,F0eq_Int_Orig_2_2_con.wav,2,34,7,260,34,female,60261,KoreanPoliteness_INT_KOR_KU,101,27,1,11/23/15,male,2,7,BlockProc,SpeakerBlocks,2,1,7,2,21,8,2halfPerc,4,1,8,8,118,6,F0eq_LoInt_2halfPerc_2_6_con.wav,2,29,7,261,29,female,59262,KoreanPoliteness_INT_KOR_KU,101,27,1,11/23/15,male,2,7,BlockProc,SpeakerBlocks,2,1,7,2,22,8,2halfPerc,4,0,8,2,1618,5,F0eq_LoInt_2halfPerc_2_5_con.wav,2,28,7,262,28,female,58263,KoreanPoliteness_INT_KOR_KU,101,27,1,11/23/15,male,2,7,BlockProc,SpeakerBlocks,2,1,7,2,23,8,2halfPerc,4,1,8,8,2372,9,F0eq_LoInt_2halfPerc_2_9_con.wav,2,31,7,263,31,female,58264,KoreanPoliteness_INT_KOR_KU,101,27,1,11/23/15,male,2,7,BlockProc,SpeakerBlocks,2,1,7,2,24,8,10Perc,1,1,8,8,180,9,F0eq_LoInt_10Perc_2_9_con.wav,2,7,7,264,7,female,54265,KoreanPoliteness_INT_KOR_KU,101,27,1,11/23/15,male,2,7,BlockProc,SpeakerBlocks,2,1,7,2,25,8,Orig,5,1,8,8,391,6,F0eq_Int_Orig_2_6_con.wav,2,37,7,265,37,female,61266,KoreanPoliteness_INT_KOR_KU,101,27,1,11/23/15,male,2,7,BlockProc,SpeakerBlocks,2,1,7,2,26,8,Orig,5,1,8,8,533,9,F0eq_Int_Orig_2_9_con.wav,2,39,7,266,39,female,60267,KoreanPoliteness_INT_KOR_KU,101,27,1,11/23/15,male,2,7,BlockProc,SpeakerBlocks,2,1,7,2,27,8,7halfPerc,2,1,8,8,817,4,F0eq_LoInt_7halfPerc_2_4_con.wav,2,11,7,267,11,female,57268,KoreanPoliteness_INT_KOR_KU,101,27,1,11/23/15,male,2,7,BlockProc,SpeakerBlocks,2,1,7,2,28,8,Orig,5,1,8,8,246,1,F0eq_Int_Orig_2_1_con.wav,2,33,7,268,33,female,59269,KoreanPoliteness_INT_KOR_KU,101,27,1,11/23/15,male,2,7,BlockProc,SpeakerBlocks,2,1,7,2,29,8,10Perc,1,1,8,8,1847,7,F0eq_LoInt_10Perc_2_7_con.wav,2,6,7,269,6,female,54270,KoreanPoliteness_INT_KOR_KU,101,27,1,11/23/15,male,2,7,BlockProc,SpeakerBlocks,2,1,7,2,30,8,5Perc,3,0,8,2,121,10,F0eq_LoInt_5Perc_2_10_con.wav,2,24,7,270,24,female,57271,KoreanPoliteness_INT_KOR_KU,101,27,1,11/23/15,male,2,7,BlockProc,SpeakerBlocks,2,1,7,2,31,8,7halfPerc,2,0,8,2,102,10,F0eq_LoInt_7halfPerc_2_10_con.wav,2,16,7,271,16,female,55272,KoreanPoliteness_INT_KOR_KU,101,27,1,11/23/15,male,2,7,BlockProc,SpeakerBlocks,2,1,7,2,32,8,7halfPerc,2,1,8,8,1609,9,F0eq_LoInt_7halfPerc_2_9_con.wav,2,15,7,272,15,female,55273,KoreanPoliteness_INT_KOR_KU,101,27,1,11/23/15,male,2,7,BlockProc,SpeakerBlocks,2,1,7,2,33,8,7halfPerc,2,1,8,8,1581,2,F0eq_LoInt_7halfPerc_2_2_con.wav,2,10,7,273,10,female,56274,KoreanPoliteness_INT_KOR_KU,101,27,1,11/23/15,male,2,7,BlockProc,SpeakerBlocks,2,1,7,2,34,8,10Perc,1,0,8,2,848,2,F0eq_LoInt_10Perc_2_2_con.wav,2,2,7,274,2,female,54275,KoreanPoliteness_INT_KOR_KU,101,27,1,11/23/15,male,2,7,BlockProc,SpeakerBlocks,2,1,7,2,35,8,2halfPerc,4,1,8,8,1490,4,F0eq_LoInt_2halfPerc_2_4_con.wav,2,27,7,275,27,female,61276,KoreanPoliteness_INT_KOR_KU,101,27,1,11/23/15,male,2,7,BlockProc,SpeakerBlocks,2,1,7,2,36,8,5Perc,3,1,8,8,231,9,F0eq_LoInt_5Perc_2_9_con.wav,2,23,7,276,23,female,57277,KoreanPoliteness_INT_KOR_KU,101,27,1,11/23/15,male,2,7,BlockProc,SpeakerBlocks,2,1,7,2,37,8,2halfPerc,4,0,8,2,247,2,F0eq_LoInt_2halfPerc_2_2_con.wav,2,26,7,277,26,female,59278,KoreanPoliteness_INT_KOR_KU,101,27,1,11/23/15,male,2,7,BlockProc,SpeakerBlocks,2,1,7,2,38,8,7halfPerc,2,1,8,8,131,1,F0eq_LoInt_7halfPerc_2_1_con.wav,2,9,7,278,9,female,54279,KoreanPoliteness_INT_KOR_KU,101,27,1,11/23/15,male,2,7,BlockProc,SpeakerBlocks,2,1,7,2,39,8,7halfPerc,2,1,8,8,242,5,F0eq_LoInt_7halfPerc_2_5_con.wav,2,12,7,279,12,female,55280,KoreanPoliteness_INT_KOR_KU,101,27,1,11/23/15,male,2,7,BlockProc,SpeakerBlocks,2,1,7,2,40,8,Orig,5,1,8,8,205,5,F0eq_Int_Orig_2_5_con.wav,2,36,7,280,36,female,60281,KoreanPoliteness_INT_KOR_KU,101,27,1,11/23/15,male,2,8,BlockProc,SpeakerBlocks,7,1,8,7,1,8,2halfPerc,4,0,8,2,1129,9,F0eq_LoInt_2halfPerc_7_9_con.wav,7,31,8,281,31,male,71282,KoreanPoliteness_INT_KOR_KU,101,27,1,11/23/15,male,2,8,BlockProc,SpeakerBlocks,7,1,8,7,2,8,2halfPerc,4,0,8,2,506,7,F0eq_LoInt_2halfPerc_7_7_con.wav,7,30,8,282,30,male,70283,KoreanPoliteness_INT_KOR_KU,101,27,1,11/23/15,male,2,8,BlockProc,SpeakerBlocks,7,1,8,7,3,8,2halfPerc,4,0,8,2,434,1,F0eq_LoInt_2halfPerc_7_1_con.wav,7,25,8,283,25,male,71284,KoreanPoliteness_INT_KOR_KU,101,27,1,11/23/15,male,2,8,BlockProc,SpeakerBlocks,7,1,8,7,4,8,2halfPerc,4,0,8,2,801,10,F0eq_LoInt_2halfPerc_7_10_con.wav,7,32,8,284,32,male,71285,KoreanPoliteness_INT_KOR_KU,101,27,1,11/23/15,male,2,8,BlockProc,SpeakerBlocks,7,1,8,7,5,8,Orig,5,0,8,2,848,5,F0eq_Int_Orig_7_5_con.wav,7,36,8,285,36,male,72286,KoreanPoliteness_INT_KOR_KU,101,27,1,11/23/15,male,2,8,BlockProc,SpeakerBlocks,7,1,8,7,6,8,10Perc,1,0,8,2,1191,7,F0eq_LoInt_10Perc_7_7_con.wav,7,6,8,286,6,male,64287,KoreanPoliteness_INT_KOR_KU,101,27,1,11/23/15,male,2,8,BlockProc,SpeakerBlocks,7,1,8,7,7,8,5Perc,3,0,8,2,1263,9,F0eq_LoInt_5Perc_7_9_con.wav,7,23,8,287,23,male,70288,KoreanPoliteness_INT_KOR_KU,101,27,1,11/23/15,male,2,8,BlockProc,SpeakerBlocks,7,1,8,7,8,8,5Perc,3,0,8,2,243,10,F0eq_LoInt_5Perc_7_10_con.wav,7,24,8,288,24,male,69289,KoreanPoliteness_INT_KOR_KU,101,27,1,11/23/15,male,2,8,BlockProc,SpeakerBlocks,7,1,8,7,9,8,7halfPerc,2,0,8,2,265,7,F0eq_LoInt_7halfPerc_7_7_con.wav,7,14,8,289,14,male,66290,KoreanPoliteness_INT_KOR_KU,101,27,1,11/23/15,male,2,8,BlockProc,SpeakerBlocks,7,1,8,7,10,8,10Perc,1,0,8,2,72,10,F0eq_LoInt_10Perc_7_10_con.wav,7,8,8,290,8,male,65291,KoreanPoliteness_INT_KOR_KU,101,27,1,11/23/15,male,2,8,BlockProc,SpeakerBlocks,7,1,8,7,11,8,5Perc,3,0,8,2,418,2,F0eq_LoInt_5Perc_7_2_con.wav,7,18,8,291,18,male,69292,KoreanPoliteness_INT_KOR_KU,101,27,1,11/23/15,male,2,8,BlockProc,SpeakerBlocks,7,1,8,7,12,8,7halfPerc,2,0,8,2,1075,6,F0eq_LoInt_7halfPerc_7_6_con.wav,7,13,8,292,13,male,67293,KoreanPoliteness_INT_KOR_KU,101,27,1,11/23/15,male,2,8,BlockProc,SpeakerBlocks,7,1,8,7,13,8,Orig,5,0,8,2,294,9,F0eq_Int_Orig_7_9_con.wav,7,39,8,293,39,male,73294,KoreanPoliteness_INT_KOR_KU,101,27,1,11/23/15,male,2,8,BlockProc,SpeakerBlocks,7,1,8,7,14,8,5Perc,3,0,8,2,889,4,F0eq_LoInt_5Perc_7_4_con.wav,7,19,8,294,19,male,69295,KoreanPoliteness_INT_KOR_KU,101,27,1,11/23/15,male,2,8,BlockProc,SpeakerBlocks,7,1,8,7,15,8,10Perc,1,0,8,2,2270,6,F0eq_LoInt_10Perc_7_6_con.wav,7,5,8,295,5,male,65296,KoreanPoliteness_INT_KOR_KU,101,27,1,11/23/15,male,2,8,BlockProc,SpeakerBlocks,7,1,8,7,16,8,2halfPerc,4,1,8,8,224,4,F0eq_LoInt_2halfPerc_7_4_con.wav,7,27,8,296,27,male,71297,KoreanPoliteness_INT_KOR_KU,101,27,1,11/23/15,male,2,8,BlockProc,SpeakerBlocks,7,1,8,7,17,8,7halfPerc,2,1,8,8,146,4,F0eq_LoInt_7halfPerc_7_4_con.wav,7,11,8,297,11,male,67298,KoreanPoliteness_INT_KOR_KU,101,27,1,11/23/15,male,2,8,BlockProc,SpeakerBlocks,7,1,8,7,18,8,Orig,5,0,8,2,818,10,F0eq_Int_Orig_7_10_con.wav,7,40,8,298,40,male,73299,KoreanPoliteness_INT_KOR_KU,101,27,1,11/23/15,male,2,8,BlockProc,SpeakerBlocks,7,1,8,7,19,8,10Perc,1,1,8,8,143,4,F0eq_LoInt_10Perc_7_4_con.wav,7,3,8,299,3,male,65300,KoreanPoliteness_INT_KOR_KU,101,27,1,11/23/15,male,2,8,BlockProc,SpeakerBlocks,7,1,8,7,20,8,Orig,5,0,8,2,16,4,F0eq_Int_Orig_7_4_con.wav,7,35,8,300,35,male,73301,KoreanPoliteness_INT_KOR_KU,101,27,1,11/23/15,male,2,8,BlockProc,SpeakerBlocks,7,1,8,7,21,8,7halfPerc,2,0,8,2,1106,9,F0eq_LoInt_7halfPerc_7_9_con.wav,7,15,8,301,15,male,68302,KoreanPoliteness_INT_KOR_KU,101,27,1,11/23/15,male,2,8,BlockProc,SpeakerBlocks,7,1,8,7,22,8,10Perc,1,1,8,8,259,5,F0eq_LoInt_10Perc_7_5_con.wav,7,4,8,302,4,male,65303,KoreanPoliteness_INT_KOR_KU,101,27,1,11/23/15,male,2,8,BlockProc,SpeakerBlocks,7,1,8,7,23,8,10Perc,1,0,8,2,1812,2,F0eq_LoInt_10Perc_7_2_con.wav,7,2,8,303,2,male,65304,KoreanPoliteness_INT_KOR_KU,101,27,1,11/23/15,male,2,8,BlockProc,SpeakerBlocks,7,1,8,7,24,8,2halfPerc,4,1,8,8,881,5,F0eq_LoInt_2halfPerc_7_5_con.wav,7,28,8,304,28,male,70305,KoreanPoliteness_INT_KOR_KU,101,27,1,11/23/15,male,2,8,BlockProc,SpeakerBlocks,7,1,8,7,25,8,7halfPerc,2,1,8,8,1549,1,F0eq_LoInt_7halfPerc_7_1_con.wav,7,9,8,305,9,male,68306,KoreanPoliteness_INT_KOR_KU,101,27,1,11/23/15,male,2,8,BlockProc,SpeakerBlocks,7,1,8,7,26,8,Orig,5,0,8,2,181,1,F0eq_Int_Orig_7_1_con.wav,7,33,8,306,33,male,73307,KoreanPoliteness_INT_KOR_KU,101,27,1,11/23/15,male,2,8,BlockProc,SpeakerBlocks,7,1,8,7,27,8,10Perc,1,0,8,2,106,1,F0eq_LoInt_10Perc_7_1_con.wav,7,1,8,307,1,male,66308,KoreanPoliteness_INT_KOR_KU,101,27,1,11/23/15,male,2,8,BlockProc,SpeakerBlocks,7,1,8,7,28,8,Orig,5,0,8,2,371,7,F0eq_Int_Orig_7_7_con.wav,7,38,8,308,38,male,72309,KoreanPoliteness_INT_KOR_KU,101,27,1,11/23/15,male,2,8,BlockProc,SpeakerBlocks,7,1,8,7,29,8,7halfPerc,2,1,8,8,698,5,F0eq_LoInt_7halfPerc_7_5_con.wav,7,12,8,309,12,male,67310,KoreanPoliteness_INT_KOR_KU,101,27,1,11/23/15,male,2,8,BlockProc,SpeakerBlocks,7,1,8,7,30,8,7halfPerc,2,1,8,8,391,2,F0eq_LoInt_7halfPerc_7_2_con.wav,7,10,8,310,10,male,67311,KoreanPoliteness_INT_KOR_KU,101,27,1,11/23/15,male,2,8,BlockProc,SpeakerBlocks,7,1,8,7,31,8,5Perc,3,1,8,8,887,6,F0eq_LoInt_5Perc_7_6_con.wav,7,21,8,311,21,male,69312,KoreanPoliteness_INT_KOR_KU,101,27,1,11/23/15,male,2,8,BlockProc,SpeakerBlocks,7,1,8,7,32,8,5Perc,3,1,8,8,399,5,F0eq_LoInt_5Perc_7_5_con.wav,7,20,8,312,20,male,69313,KoreanPoliteness_INT_KOR_KU,101,27,1,11/23/15,male,2,8,BlockProc,SpeakerBlocks,7,1,8,7,33,8,Orig,5,0,8,2,216,6,F0eq_Int_Orig_7_6_con.wav,7,37,8,313,37,male,72314,KoreanPoliteness_INT_KOR_KU,101,27,1,11/23/15,male,2,8,BlockProc,SpeakerBlocks,7,1,8,7,34,8,5Perc,3,1,8,8,1665,1,F0eq_LoInt_5Perc_7_1_con.wav,7,17,8,314,17,male,69315,KoreanPoliteness_INT_KOR_KU,101,27,1,11/23/15,male,2,8,BlockProc,SpeakerBlocks,7,1,8,7,35,8,2halfPerc,4,1,8,8,354,2,F0eq_LoInt_2halfPerc_7_2_con.wav,7,26,8,315,26,male,71316,KoreanPoliteness_INT_KOR_KU,101,27,1,11/23/15,male,2,8,BlockProc,SpeakerBlocks,7,1,8,7,36,8,Orig,5,1,8,8,904,2,F0eq_Int_Orig_7_2_con.wav,7,34,8,316,34,male,72317,KoreanPoliteness_INT_KOR_KU,101,27,1,11/23/15,male,2,8,BlockProc,SpeakerBlocks,7,1,8,7,37,8,2halfPerc,4,1,8,8,291,6,F0eq_LoInt_2halfPerc_7_6_con.wav,7,29,8,317,29,male,71318,KoreanPoliteness_INT_KOR_KU,101,27,1,11/23/15,male,2,8,BlockProc,SpeakerBlocks,7,1,8,7,38,8,7halfPerc,2,0,8,2,1743,10,F0eq_LoInt_7halfPerc_7_10_con.wav,7,16,8,318,16,male,67319,KoreanPoliteness_INT_KOR_KU,101,27,1,11/23/15,male,2,8,BlockProc,SpeakerBlocks,7,1,8,7,39,8,10Perc,1,1,8,8,385,9,F0eq_LoInt_10Perc_7_9_con.wav,7,7,8,319,7,male,66320,KoreanPoliteness_INT_KOR_KU,101,27,1,11/23/15,male,2,8,BlockProc,SpeakerBlocks,7,1,8,7,40,8,5Perc,3,1,8,8,735,7,F0eq_LoInt_5Perc_7_7_con.wav,7,22,8,320,22,male,68321,KoreanPoliteness_INT_KOR_KU,102,21,1,11/23/15,female,2,1,BlockProc,SpeakerBlocks,4,1,1,4,1,8,2halfPerc,4,1,8,8,275,9,F0eq_LoInt_2halfPerc_4_9_con.wav,4,31,1,1,31,female,73322,KoreanPoliteness_INT_KOR_KU,102,21,1,11/23/15,female,2,1,BlockProc,SpeakerBlocks,4,1,1,4,2,8,Orig,5,0,8,2,133,7,F0eq_Int_Orig_4_7_con.wav,4,38,1,2,38,female,72323,KoreanPoliteness_INT_KOR_KU,102,21,1,11/23/15,female,2,1,BlockProc,SpeakerBlocks,4,1,1,4,3,8,5Perc,3,0,8,2,569,2,F0eq_LoInt_5Perc_4_2_con.wav,4,18,1,3,18,female,69324,KoreanPoliteness_INT_KOR_KU,102,21,1,11/23/15,female,2,1,BlockProc,SpeakerBlocks,4,1,1,4,4,8,7halfPerc,2,0,8,2,309,9,F0eq_LoInt_7halfPerc_4_9_con.wav,4,15,1,4,15,female,69325,KoreanPoliteness_INT_KOR_KU,102,21,1,11/23/15,female,2,1,BlockProc,SpeakerBlocks,4,1,1,4,5,8,Orig,5,1,8,8,309,9,F0eq_Int_Orig_4_9_con.wav,4,39,1,5,39,female,74326,KoreanPoliteness_INT_KOR_KU,102,21,1,11/23/15,female,2,1,BlockProc,SpeakerBlocks,4,1,1,4,6,8,Orig,5,0,8,2,277,5,F0eq_Int_Orig_4_5_con.wav,4,36,1,6,36,female,73327,KoreanPoliteness_INT_KOR_KU,102,21,1,11/23/15,female,2,1,BlockProc,SpeakerBlocks,4,1,1,4,7,8,2halfPerc,4,0,8,2,84,5,F0eq_LoInt_2halfPerc_4_5_con.wav,4,28,1,7,28,female,71328,KoreanPoliteness_INT_KOR_KU,102,21,1,11/23/15,female,2,1,BlockProc,SpeakerBlocks,4,1,1,4,8,8,2halfPerc,4,0,8,2,1814,7,F0eq_LoInt_2halfPerc_4_7_con.wav,4,30,1,8,30,female,71329,KoreanPoliteness_INT_KOR_KU,102,21,1,11/23/15,female,2,1,BlockProc,SpeakerBlocks,4,1,1,4,9,8,2halfPerc,4,1,8,8,848,1,F0eq_LoInt_2halfPerc_4_1_con.wav,4,25,1,9,25,female,72330,KoreanPoliteness_INT_KOR_KU,102,21,1,11/23/15,female,2,1,BlockProc,SpeakerBlocks,4,1,1,4,10,8,5Perc,3,1,8,8,415,6,F0eq_LoInt_5Perc_4_6_con.wav,4,21,1,10,21,female,70331,KoreanPoliteness_INT_KOR_KU,102,21,1,11/23/15,female,2,1,BlockProc,SpeakerBlocks,4,1,1,4,11,8,5Perc,3,1,8,8,429,1,F0eq_LoInt_5Perc_4_1_con.wav,4,17,1,11,17,female,70332,KoreanPoliteness_INT_KOR_KU,102,21,1,11/23/15,female,2,1,BlockProc,SpeakerBlocks,4,1,1,4,12,8,Orig,5,0,8,2,168,6,F0eq_Int_Orig_4_6_con.wav,4,37,1,12,37,female,73333,KoreanPoliteness_INT_KOR_KU,102,21,1,11/23/15,female,2,1,BlockProc,SpeakerBlocks,4,1,1,4,13,8,10Perc,1,1,8,8,131,1,F0eq_LoInt_10Perc_4_1_con.wav,4,1,1,13,1,female,67334,KoreanPoliteness_INT_KOR_KU,102,21,1,11/23/15,female,2,1,BlockProc,SpeakerBlocks,4,1,1,4,14,8,5Perc,3,0,8,2,540,5,F0eq_LoInt_5Perc_4_5_con.wav,4,20,1,14,20,female,70335,KoreanPoliteness_INT_KOR_KU,102,21,1,11/23/15,female,2,1,BlockProc,SpeakerBlocks,4,1,1,4,15,8,10Perc,1,1,8,8,299,7,F0eq_LoInt_10Perc_4_7_con.wav,4,6,1,15,6,female,65336,KoreanPoliteness_INT_KOR_KU,102,21,1,11/23/15,female,2,1,BlockProc,SpeakerBlocks,4,1,1,4,16,8,2halfPerc,4,0,8,2,364,2,F0eq_LoInt_2halfPerc_4_2_con.wav,4,26,1,16,26,female,71337,KoreanPoliteness_INT_KOR_KU,102,21,1,11/23/15,female,2,1,BlockProc,SpeakerBlocks,4,1,1,4,17,8,2halfPerc,4,0,8,2,147,4,F0eq_LoInt_2halfPerc_4_4_con.wav,4,27,1,17,27,female,72338,KoreanPoliteness_INT_KOR_KU,102,21,1,11/23/15,female,2,1,BlockProc,SpeakerBlocks,4,1,1,4,18,8,5Perc,3,0,8,2,55,4,F0eq_LoInt_5Perc_4_4_con.wav,4,19,1,18,19,female,70339,KoreanPoliteness_INT_KOR_KU,102,21,1,11/23/15,female,2,1,BlockProc,SpeakerBlocks,4,1,1,4,19,8,Orig,5,0,8,2,419,4,F0eq_Int_Orig_4_4_con.wav,4,35,1,19,35,female,74340,KoreanPoliteness_INT_KOR_KU,102,21,1,11/23/15,female,2,1,BlockProc,SpeakerBlocks,4,1,1,4,20,8,Orig,5,0,8,2,595,2,F0eq_Int_Orig_4_2_con.wav,4,34,1,20,34,female,73341,KoreanPoliteness_INT_KOR_KU,102,21,1,11/23/15,female,2,1,BlockProc,SpeakerBlocks,4,1,1,4,21,8,Orig,5,0,8,2,1654,1,F0eq_Int_Orig_4_1_con.wav,4,33,1,21,33,female,74342,KoreanPoliteness_INT_KOR_KU,102,21,1,11/23/15,female,2,1,BlockProc,SpeakerBlocks,4,1,1,4,22,8,7halfPerc,2,0,8,2,1469,7,F0eq_LoInt_7halfPerc_4_7_con.wav,4,14,1,22,14,female,67343,KoreanPoliteness_INT_KOR_KU,102,21,1,11/23/15,female,2,1,BlockProc,SpeakerBlocks,4,1,1,4,23,8,Orig,5,0,8,2,1849,10,F0eq_Int_Orig_4_10_con.wav,4,40,1,23,40,female,74344,KoreanPoliteness_INT_KOR_KU,102,21,1,11/23/15,female,2,1,BlockProc,SpeakerBlocks,4,1,1,4,24,8,7halfPerc,2,1,8,8,509,1,F0eq_LoInt_7halfPerc_4_1_con.wav,4,9,1,24,9,female,69345,KoreanPoliteness_INT_KOR_KU,102,21,1,11/23/15,female,2,1,BlockProc,SpeakerBlocks,4,1,1,4,25,8,7halfPerc,2,1,8,8,149,10,F0eq_LoInt_7halfPerc_4_10_con.wav,4,16,1,25,16,female,69346,KoreanPoliteness_INT_KOR_KU,102,21,1,11/23/15,female,2,1,BlockProc,SpeakerBlocks,4,1,1,4,26,8,10Perc,1,1,8,8,128,10,F0eq_LoInt_10Perc_4_10_con.wav,4,8,1,26,8,female,67347,KoreanPoliteness_INT_KOR_KU,102,21,1,11/23/15,female,2,1,BlockProc,SpeakerBlocks,4,1,1,4,27,8,2halfPerc,4,0,8,2,218,10,F0eq_LoInt_2halfPerc_4_10_con.wav,4,32,1,27,32,female,72348,KoreanPoliteness_INT_KOR_KU,102,21,1,11/23/15,female,2,1,BlockProc,SpeakerBlocks,4,1,1,4,28,8,10Perc,1,1,8,8,108,5,F0eq_LoInt_10Perc_4_5_con.wav,4,4,1,28,4,female,66349,KoreanPoliteness_INT_KOR_KU,102,21,1,11/23/15,female,2,1,BlockProc,SpeakerBlocks,4,1,1,4,29,8,5Perc,3,0,8,2,504,9,F0eq_LoInt_5Perc_4_9_con.wav,4,23,1,29,23,female,71350,KoreanPoliteness_INT_KOR_KU,102,21,1,11/23/15,female,2,1,BlockProc,SpeakerBlocks,4,1,1,4,30,8,7halfPerc,2,1,8,8,1041,4,F0eq_LoInt_7halfPerc_4_4_con.wav,4,11,1,30,11,female,68351,KoreanPoliteness_INT_KOR_KU,102,21,1,11/23/15,female,2,1,BlockProc,SpeakerBlocks,4,1,1,4,31,8,7halfPerc,2,1,8,8,473,2,F0eq_LoInt_7halfPerc_4_2_con.wav,4,10,1,31,10,female,67352,KoreanPoliteness_INT_KOR_KU,102,21,1,11/23/15,female,2,1,BlockProc,SpeakerBlocks,4,1,1,4,32,8,5Perc,3,1,8,8,104,10,F0eq_LoInt_5Perc_4_10_con.wav,4,24,1,32,24,female,70353,KoreanPoliteness_INT_KOR_KU,102,21,1,11/23/15,female,2,1,BlockProc,SpeakerBlocks,4,1,1,4,33,8,10Perc,1,0,8,2,1264,9,F0eq_LoInt_10Perc_4_9_con.wav,4,7,1,33,7,female,67354,KoreanPoliteness_INT_KOR_KU,102,21,1,11/23/15,female,2,1,BlockProc,SpeakerBlocks,4,1,1,4,34,8,5Perc,3,1,8,8,904,7,F0eq_LoInt_5Perc_4_7_con.wav,4,22,1,34,22,female,69355,KoreanPoliteness_INT_KOR_KU,102,21,1,11/23/15,female,2,1,BlockProc,SpeakerBlocks,4,1,1,4,35,8,2halfPerc,4,1,8,8,152,6,F0eq_LoInt_2halfPerc_4_6_con.wav,4,29,1,35,29,female,72356,KoreanPoliteness_INT_KOR_KU,102,21,1,11/23/15,female,2,1,BlockProc,SpeakerBlocks,4,1,1,4,36,8,7halfPerc,2,0,8,2,423,5,F0eq_LoInt_7halfPerc_4_5_con.wav,4,12,1,36,12,female,68357,KoreanPoliteness_INT_KOR_KU,102,21,1,11/23/15,female,2,1,BlockProc,SpeakerBlocks,4,1,1,4,37,8,10Perc,1,0,8,2,909,6,F0eq_LoInt_10Perc_4_6_con.wav,4,5,1,37,5,female,66358,KoreanPoliteness_INT_KOR_KU,102,21,1,11/23/15,female,2,1,BlockProc,SpeakerBlocks,4,1,1,4,38,8,10Perc,1,0,8,2,320,4,F0eq_LoInt_10Perc_4_4_con.wav,4,3,1,38,3,female,66359,KoreanPoliteness_INT_KOR_KU,102,21,1,11/23/15,female,2,1,BlockProc,SpeakerBlocks,4,1,1,4,39,8,10Perc,1,1,8,8,1071,2,F0eq_LoInt_10Perc_4_2_con.wav,4,2,1,39,2,female,66360,KoreanPoliteness_INT_KOR_KU,102,21,1,11/23/15,female,2,1,BlockProc,SpeakerBlocks,4,1,1,4,40,8,7halfPerc,2,1,8,8,542,6,F0eq_LoInt_7halfPerc_4_6_con.wav,4,13,1,40,13,female,68361,KoreanPoliteness_INT_KOR_KU,102,21,1,11/23/15,female,2,2,BlockProc,SpeakerBlocks,1,1,2,1,1,8,Orig,5,1,8,8,722,2,F0eq_Int_Orig_1_2_con.wav,1,34,2,41,34,male,65362,KoreanPoliteness_INT_KOR_KU,102,21,1,11/23/15,female,2,2,BlockProc,SpeakerBlocks,1,1,2,1,2,8,10Perc,1,0,8,2,89,10,F0eq_LoInt_10Perc_1_10_con.wav,1,8,2,42,8,male,58363,KoreanPoliteness_INT_KOR_KU,102,21,1,11/23/15,female,2,2,BlockProc,SpeakerBlocks,1,1,2,1,3,8,7halfPerc,2,0,8,2,682,5,F0eq_LoInt_7halfPerc_1_5_con.wav,1,12,2,43,12,male,62364,KoreanPoliteness_INT_KOR_KU,102,21,1,11/23/15,female,2,2,BlockProc,SpeakerBlocks,1,1,2,1,4,8,2halfPerc,4,0,8,2,950,1,F0eq_LoInt_2halfPerc_1_1_con.wav,1,25,2,44,25,male,63365,KoreanPoliteness_INT_KOR_KU,102,21,1,11/23/15,female,2,2,BlockProc,SpeakerBlocks,1,1,2,1,5,8,10Perc,1,1,8,8,305,2,F0eq_LoInt_10Perc_1_2_con.wav,1,2,2,45,2,male,59366,KoreanPoliteness_INT_KOR_KU,102,21,1,11/23/15,female,2,2,BlockProc,SpeakerBlocks,1,1,2,1,6,8,5Perc,3,0,8,2,591,2,F0eq_LoInt_5Perc_1_2_con.wav,1,18,2,46,18,male,62367,KoreanPoliteness_INT_KOR_KU,102,21,1,11/23/15,female,2,2,BlockProc,SpeakerBlocks,1,1,2,1,7,8,2halfPerc,4,0,8,2,368,6,F0eq_LoInt_2halfPerc_1_6_con.wav,1,29,2,47,29,male,64368,KoreanPoliteness_INT_KOR_KU,102,21,1,11/23/15,female,2,2,BlockProc,SpeakerBlocks,1,1,2,1,8,8,10Perc,1,0,8,2,216,5,F0eq_LoInt_10Perc_1_5_con.wav,1,4,2,48,4,male,60369,KoreanPoliteness_INT_KOR_KU,102,21,1,11/23/15,female,2,2,BlockProc,SpeakerBlocks,1,1,2,1,9,8,5Perc,3,0,8,2,760,1,F0eq_LoInt_5Perc_1_1_con.wav,1,17,2,49,17,male,62370,KoreanPoliteness_INT_KOR_KU,102,21,1,11/23/15,female,2,2,BlockProc,SpeakerBlocks,1,1,2,1,10,8,5Perc,3,1,8,8,216,5,F0eq_LoInt_5Perc_1_5_con.wav,1,20,2,50,20,male,64371,KoreanPoliteness_INT_KOR_KU,102,21,1,11/23/15,female,2,2,BlockProc,SpeakerBlocks,1,1,2,1,11,8,10Perc,1,1,8,8,163,1,F0eq_LoInt_10Perc_1_1_con.wav,1,1,2,51,1,male,59372,KoreanPoliteness_INT_KOR_KU,102,21,1,11/23/15,female,2,2,BlockProc,SpeakerBlocks,1,1,2,1,12,8,5Perc,3,0,8,2,624,10,F0eq_LoInt_5Perc_1_10_con.wav,1,24,2,52,24,male,61373,KoreanPoliteness_INT_KOR_KU,102,21,1,11/23/15,female,2,2,BlockProc,SpeakerBlocks,1,1,2,1,13,8,5Perc,3,0,8,2,265,7,F0eq_LoInt_5Perc_1_7_con.wav,1,22,2,53,22,male,68374,KoreanPoliteness_INT_KOR_KU,102,21,1,11/23/15,female,2,2,BlockProc,SpeakerBlocks,1,1,2,1,14,8,5Perc,3,1,8,8,414,9,F0eq_LoInt_5Perc_1_9_con.wav,1,23,2,54,23,male,64375,KoreanPoliteness_INT_KOR_KU,102,21,1,11/23/15,female,2,2,BlockProc,SpeakerBlocks,1,1,2,1,15,8,7halfPerc,2,0,8,2,203,7,F0eq_LoInt_7halfPerc_1_7_con.wav,1,14,2,55,14,male,66376,KoreanPoliteness_INT_KOR_KU,102,21,1,11/23/15,female,2,2,BlockProc,SpeakerBlocks,1,1,2,1,16,8,Orig,5,1,8,8,2339,1,F0eq_Int_Orig_1_1_con.wav,1,33,2,56,33,male,65377,KoreanPoliteness_INT_KOR_KU,102,21,1,11/23/15,female,2,2,BlockProc,SpeakerBlocks,1,1,2,1,17,8,7halfPerc,2,1,8,8,129,10,F0eq_LoInt_7halfPerc_1_10_con.wav,1,16,2,57,16,male,59378,KoreanPoliteness_INT_KOR_KU,102,21,1,11/23/15,female,2,2,BlockProc,SpeakerBlocks,1,1,2,1,18,8,5Perc,3,0,8,2,809,4,F0eq_LoInt_5Perc_1_4_con.wav,1,19,2,58,19,male,64379,KoreanPoliteness_INT_KOR_KU,102,21,1,11/23/15,female,2,2,BlockProc,SpeakerBlocks,1,1,2,1,19,8,10Perc,1,1,8,8,329,4,F0eq_LoInt_10Perc_1_4_con.wav,1,3,2,59,3,male,61380,KoreanPoliteness_INT_KOR_KU,102,21,1,11/23/15,female,2,2,BlockProc,SpeakerBlocks,1,1,2,1,20,8,2halfPerc,4,1,8,8,691,9,F0eq_LoInt_2halfPerc_1_9_con.wav,1,31,2,60,31,male,65381,KoreanPoliteness_INT_KOR_KU,102,21,1,11/23/15,female,2,2,BlockProc,SpeakerBlocks,1,1,2,1,21,8,Orig,5,1,8,8,1190,10,F0eq_Int_Orig_1_10_con.wav,1,40,2,61,40,male,64382,KoreanPoliteness_INT_KOR_KU,102,21,1,11/23/15,female,2,2,BlockProc,SpeakerBlocks,1,1,2,1,22,8,Orig,5,1,8,8,129,5,F0eq_Int_Orig_1_5_con.wav,1,36,2,62,36,male,67383,KoreanPoliteness_INT_KOR_KU,102,21,1,11/23/15,female,2,2,BlockProc,SpeakerBlocks,1,1,2,1,23,8,2halfPerc,4,0,8,2,527,7,F0eq_LoInt_2halfPerc_1_7_con.wav,1,30,2,63,30,male,70384,KoreanPoliteness_INT_KOR_KU,102,21,1,11/23/15,female,2,2,BlockProc,SpeakerBlocks,1,1,2,1,24,8,Orig,5,0,8,2,2887,7,F0eq_Int_Orig_1_7_con.wav,1,38,2,64,38,male,71385,KoreanPoliteness_INT_KOR_KU,102,21,1,11/23/15,female,2,2,BlockProc,SpeakerBlocks,1,1,2,1,25,8,10Perc,1,1,8,8,310,9,F0eq_LoInt_10Perc_1_9_con.wav,1,7,2,65,7,male,60386,KoreanPoliteness_INT_KOR_KU,102,21,1,11/23/15,female,2,2,BlockProc,SpeakerBlocks,1,1,2,1,26,8,7halfPerc,2,0,8,2,165,6,F0eq_LoInt_7halfPerc_1_6_con.wav,1,13,2,66,13,male,60387,KoreanPoliteness_INT_KOR_KU,102,21,1,11/23/15,female,2,2,BlockProc,SpeakerBlocks,1,1,2,1,27,8,Orig,5,0,8,2,709,4,F0eq_Int_Orig_1_4_con.wav,1,35,2,67,35,male,68388,KoreanPoliteness_INT_KOR_KU,102,21,1,11/23/15,female,2,2,BlockProc,SpeakerBlocks,1,1,2,1,28,8,7halfPerc,2,0,8,2,839,2,F0eq_LoInt_7halfPerc_1_2_con.wav,1,10,2,68,10,male,60389,KoreanPoliteness_INT_KOR_KU,102,21,1,11/23/15,female,2,2,BlockProc,SpeakerBlocks,1,1,2,1,29,8,7halfPerc,2,1,8,8,346,1,F0eq_LoInt_7halfPerc_1_1_con.wav,1,9,2,69,9,male,60390,KoreanPoliteness_INT_KOR_KU,102,21,1,11/23/15,female,2,2,BlockProc,SpeakerBlocks,1,1,2,1,30,8,10Perc,1,1,8,8,732,6,F0eq_LoInt_10Perc_1_6_con.wav,1,5,2,70,5,male,59391,KoreanPoliteness_INT_KOR_KU,102,21,1,11/23/15,female,2,2,BlockProc,SpeakerBlocks,1,1,2,1,31,8,Orig,5,0,8,2,207,9,F0eq_Int_Orig_1_9_con.wav,1,39,2,71,39,male,67392,KoreanPoliteness_INT_KOR_KU,102,21,1,11/23/15,female,2,2,BlockProc,SpeakerBlocks,1,1,2,1,32,8,7halfPerc,2,1,8,8,146,9,F0eq_LoInt_7halfPerc_1_9_con.wav,1,15,2,72,15,male,62393,KoreanPoliteness_INT_KOR_KU,102,21,1,11/23/15,female,2,2,BlockProc,SpeakerBlocks,1,1,2,1,33,8,2halfPerc,4,0,8,2,684,4,F0eq_LoInt_2halfPerc_1_4_con.wav,1,27,2,73,27,male,66394,KoreanPoliteness_INT_KOR_KU,102,21,1,11/23/15,female,2,2,BlockProc,SpeakerBlocks,1,1,2,1,34,8,Orig,5,1,8,8,944,6,F0eq_Int_Orig_1_6_con.wav,1,37,2,74,37,male,65395,KoreanPoliteness_INT_KOR_KU,102,21,1,11/23/15,female,2,2,BlockProc,SpeakerBlocks,1,1,2,1,35,8,2halfPerc,4,1,8,8,106,10,F0eq_LoInt_2halfPerc_1_10_con.wav,1,32,2,75,32,male,63396,KoreanPoliteness_INT_KOR_KU,102,21,1,11/23/15,female,2,2,BlockProc,SpeakerBlocks,1,1,2,1,36,8,7halfPerc,2,1,8,8,911,4,F0eq_LoInt_7halfPerc_1_4_con.wav,1,11,2,76,11,male,63397,KoreanPoliteness_INT_KOR_KU,102,21,1,11/23/15,female,2,2,BlockProc,SpeakerBlocks,1,1,2,1,37,8,10Perc,1,0,8,2,260,7,F0eq_LoInt_10Perc_1_7_con.wav,1,6,2,77,6,male,64398,KoreanPoliteness_INT_KOR_KU,102,21,1,11/23/15,female,2,2,BlockProc,SpeakerBlocks,1,1,2,1,38,8,2halfPerc,4,0,8,2,97,5,F0eq_LoInt_2halfPerc_1_5_con.wav,1,28,2,78,28,male,66399,KoreanPoliteness_INT_KOR_KU,102,21,1,11/23/15,female,2,2,BlockProc,SpeakerBlocks,1,1,2,1,39,8,2halfPerc,4,0,8,2,651,2,F0eq_LoInt_2halfPerc_1_2_con.wav,1,26,2,79,26,male,64400,KoreanPoliteness_INT_KOR_KU,102,21,1,11/23/15,female,2,2,BlockProc,SpeakerBlocks,1,1,2,1,40,8,5Perc,3,1,8,8,1503,6,F0eq_LoInt_5Perc_1_6_con.wav,1,21,2,80,21,male,62401,KoreanPoliteness_INT_KOR_KU,102,21,1,11/23/15,female,2,3,BlockProc,SpeakerBlocks,5,1,3,5,1,8,5Perc,3,0,8,2,368,2,F0eq_LoInt_5Perc_5_2_con.wav,5,18,3,81,18,female,65402,KoreanPoliteness_INT_KOR_KU,102,21,1,11/23/15,female,2,3,BlockProc,SpeakerBlocks,5,1,3,5,2,8,5Perc,3,0,8,2,251,7,F0eq_LoInt_5Perc_5_7_con.wav,5,22,3,82,22,female,66403,KoreanPoliteness_INT_KOR_KU,102,21,1,11/23/15,female,2,3,BlockProc,SpeakerBlocks,5,1,3,5,3,8,10Perc,1,1,8,8,193,9,F0eq_LoInt_10Perc_5_9_con.wav,5,7,3,83,7,female,64404,KoreanPoliteness_INT_KOR_KU,102,21,1,11/23/15,female,2,3,BlockProc,SpeakerBlocks,5,1,3,5,4,8,7halfPerc,2,0,8,2,26,6,F0eq_LoInt_7halfPerc_5_6_con.wav,5,13,3,84,13,female,63405,KoreanPoliteness_INT_KOR_KU,102,21,1,11/23/15,female,2,3,BlockProc,SpeakerBlocks,5,1,3,5,5,8,Orig,5,0,8,2,614,4,F0eq_Int_Orig_5_4_con.wav,5,35,3,85,35,female,69406,KoreanPoliteness_INT_KOR_KU,102,21,1,11/23/15,female,2,3,BlockProc,SpeakerBlocks,5,1,3,5,6,8,7halfPerc,2,1,8,8,1059,1,F0eq_LoInt_7halfPerc_5_1_con.wav,5,9,3,86,9,female,61407,KoreanPoliteness_INT_KOR_KU,102,21,1,11/23/15,female,2,3,BlockProc,SpeakerBlocks,5,1,3,5,7,8,10Perc,1,1,8,8,594,6,F0eq_LoInt_10Perc_5_6_con.wav,5,5,3,87,5,female,62408,KoreanPoliteness_INT_KOR_KU,102,21,1,11/23/15,female,2,3,BlockProc,SpeakerBlocks,5,1,3,5,8,8,7halfPerc,2,0,8,2,2476,2,F0eq_LoInt_7halfPerc_5_2_con.wav,5,10,3,88,10,female,64409,KoreanPoliteness_INT_KOR_KU,102,21,1,11/23/15,female,2,3,BlockProc,SpeakerBlocks,5,1,3,5,9,8,Orig,5,0,8,,0,1,F0eq_Int_Orig_5_1_con.wav,5,33,3,89,33,female,66410,KoreanPoliteness_INT_KOR_KU,102,21,1,11/23/15,female,2,3,BlockProc,SpeakerBlocks,5,1,3,5,10,8,2halfPerc,4,1,8,8,312,7,F0eq_LoInt_2halfPerc_5_7_con.wav,5,30,3,90,30,female,68411,KoreanPoliteness_INT_KOR_KU,102,21,1,11/23/15,female,2,3,BlockProc,SpeakerBlocks,5,1,3,5,11,8,10Perc,1,0,8,2,2450,5,F0eq_LoInt_10Perc_5_5_con.wav,5,4,3,91,4,female,63412,KoreanPoliteness_INT_KOR_KU,102,21,1,11/23/15,female,2,3,BlockProc,SpeakerBlocks,5,1,3,5,12,8,5Perc,3,0,8,2,1158,5,F0eq_LoInt_5Perc_5_5_con.wav,5,20,3,92,20,female,67413,KoreanPoliteness_INT_KOR_KU,102,21,1,11/23/15,female,2,3,BlockProc,SpeakerBlocks,5,1,3,5,13,8,5Perc,3,0,8,2,253,10,F0eq_LoInt_5Perc_5_10_con.wav,5,24,3,93,24,female,64414,KoreanPoliteness_INT_KOR_KU,102,21,1,11/23/15,female,2,3,BlockProc,SpeakerBlocks,5,1,3,5,14,8,7halfPerc,2,1,8,8,807,10,F0eq_LoInt_7halfPerc_5_10_con.wav,5,16,3,94,16,female,63415,KoreanPoliteness_INT_KOR_KU,102,21,1,11/23/15,female,2,3,BlockProc,SpeakerBlocks,5,1,3,5,15,8,10Perc,1,0,8,2,177,4,F0eq_LoInt_10Perc_5_4_con.wav,5,3,3,95,3,female,62416,KoreanPoliteness_INT_KOR_KU,102,21,1,11/23/15,female,2,3,BlockProc,SpeakerBlocks,5,1,3,5,16,8,2halfPerc,4,1,8,8,25,1,F0eq_LoInt_2halfPerc_5_1_con.wav,5,25,3,96,25,female,64417,KoreanPoliteness_INT_KOR_KU,102,21,1,11/23/15,female,2,3,BlockProc,SpeakerBlocks,5,1,3,5,17,8,Orig,5,0,8,2,65,10,F0eq_Int_Orig_5_10_con.wav,5,40,3,97,40,female,68418,KoreanPoliteness_INT_KOR_KU,102,21,1,11/23/15,female,2,3,BlockProc,SpeakerBlocks,5,1,3,5,18,8,Orig,5,0,8,2,252,5,F0eq_Int_Orig_5_5_con.wav,5,36,3,98,36,female,70419,KoreanPoliteness_INT_KOR_KU,102,21,1,11/23/15,female,2,3,BlockProc,SpeakerBlocks,5,1,3,5,19,8,Orig,5,0,8,2,161,2,F0eq_Int_Orig_5_2_con.wav,5,34,3,99,34,female,69420,KoreanPoliteness_INT_KOR_KU,102,21,1,11/23/15,female,2,3,BlockProc,SpeakerBlocks,5,1,3,5,20,8,7halfPerc,2,1,8,8,329,7,F0eq_LoInt_7halfPerc_5_7_con.wav,5,14,3,100,14,female,65421,KoreanPoliteness_INT_KOR_KU,102,21,1,11/23/15,female,2,3,BlockProc,SpeakerBlocks,5,1,3,5,21,8,Orig,5,0,8,2,61,9,F0eq_Int_Orig_5_9_con.wav,5,39,3,101,39,female,71422,KoreanPoliteness_INT_KOR_KU,102,21,1,11/23/15,female,2,3,BlockProc,SpeakerBlocks,5,1,3,5,22,8,2halfPerc,4,0,8,2,2550,10,F0eq_LoInt_2halfPerc_5_10_con.wav,5,32,3,102,32,female,66423,KoreanPoliteness_INT_KOR_KU,102,21,1,11/23/15,female,2,3,BlockProc,SpeakerBlocks,5,1,3,5,23,8,Orig,5,1,8,8,395,6,F0eq_Int_Orig_5_6_con.wav,5,37,3,103,37,female,69424,KoreanPoliteness_INT_KOR_KU,102,21,1,11/23/15,female,2,3,BlockProc,SpeakerBlocks,5,1,3,5,24,8,5Perc,3,1,8,8,95,6,F0eq_LoInt_5Perc_5_6_con.wav,5,21,3,104,21,female,65425,KoreanPoliteness_INT_KOR_KU,102,21,1,11/23/15,female,2,3,BlockProc,SpeakerBlocks,5,1,3,5,25,8,5Perc,3,1,8,8,438,1,F0eq_LoInt_5Perc_5_1_con.wav,5,17,3,105,17,female,63426,KoreanPoliteness_INT_KOR_KU,102,21,1,11/23/15,female,2,3,BlockProc,SpeakerBlocks,5,1,3,5,26,8,7halfPerc,2,1,8,8,262,5,F0eq_LoInt_7halfPerc_5_5_con.wav,5,12,3,106,12,female,65427,KoreanPoliteness_INT_KOR_KU,102,21,1,11/23/15,female,2,3,BlockProc,SpeakerBlocks,5,1,3,5,27,8,10Perc,1,1,8,8,509,10,F0eq_LoInt_10Perc_5_10_con.wav,5,8,3,107,8,female,61428,KoreanPoliteness_INT_KOR_KU,102,21,1,11/23/15,female,2,3,BlockProc,SpeakerBlocks,5,1,3,5,28,8,5Perc,3,1,8,8,295,9,F0eq_LoInt_5Perc_5_9_con.wav,5,23,3,108,23,female,67429,KoreanPoliteness_INT_KOR_KU,102,21,1,11/23/15,female,2,3,BlockProc,SpeakerBlocks,5,1,3,5,29,8,10Perc,1,0,8,2,722,2,F0eq_LoInt_10Perc_5_2_con.wav,5,2,3,109,2,female,62430,KoreanPoliteness_INT_KOR_KU,102,21,1,11/23/15,female,2,3,BlockProc,SpeakerBlocks,5,1,3,5,30,8,7halfPerc,2,1,8,8,160,4,F0eq_LoInt_7halfPerc_5_4_con.wav,5,11,3,110,11,female,64431,KoreanPoliteness_INT_KOR_KU,102,21,1,11/23/15,female,2,3,BlockProc,SpeakerBlocks,5,1,3,5,31,8,2halfPerc,4,0,8,2,54,9,F0eq_LoInt_2halfPerc_5_9_con.wav,5,31,3,111,31,female,69432,KoreanPoliteness_INT_KOR_KU,102,21,1,11/23/15,female,2,3,BlockProc,SpeakerBlocks,5,1,3,5,32,8,2halfPerc,4,0,8,2,505,4,F0eq_LoInt_2halfPerc_5_4_con.wav,5,27,3,112,27,female,67433,KoreanPoliteness_INT_KOR_KU,102,21,1,11/23/15,female,2,3,BlockProc,SpeakerBlocks,5,1,3,5,33,8,5Perc,3,0,8,2,97,4,F0eq_LoInt_5Perc_5_4_con.wav,5,19,3,113,19,female,65434,KoreanPoliteness_INT_KOR_KU,102,21,1,11/23/15,female,2,3,BlockProc,SpeakerBlocks,5,1,3,5,34,8,10Perc,1,1,8,8,53,7,F0eq_LoInt_10Perc_5_7_con.wav,5,6,3,114,6,female,63435,KoreanPoliteness_INT_KOR_KU,102,21,1,11/23/15,female,2,3,BlockProc,SpeakerBlocks,5,1,3,5,35,8,2halfPerc,4,1,8,8,501,6,F0eq_LoInt_2halfPerc_5_6_con.wav,5,29,3,115,29,female,67436,KoreanPoliteness_INT_KOR_KU,102,21,1,11/23/15,female,2,3,BlockProc,SpeakerBlocks,5,1,3,5,36,8,7halfPerc,2,1,8,8,573,9,F0eq_LoInt_7halfPerc_5_9_con.wav,5,15,3,116,15,female,66437,KoreanPoliteness_INT_KOR_KU,102,21,1,11/23/15,female,2,3,BlockProc,SpeakerBlocks,5,1,3,5,37,8,2halfPerc,4,0,8,2,2990,2,F0eq_LoInt_2halfPerc_5_2_con.wav,5,26,3,117,26,female,67438,KoreanPoliteness_INT_KOR_KU,102,21,1,11/23/15,female,2,3,BlockProc,SpeakerBlocks,5,1,3,5,38,8,10Perc,1,1,8,8,167,1,F0eq_LoInt_10Perc_5_1_con.wav,5,1,3,118,1,female,59439,KoreanPoliteness_INT_KOR_KU,102,21,1,11/23/15,female,2,3,BlockProc,SpeakerBlocks,5,1,3,5,39,8,Orig,5,0,8,2,2189,7,F0eq_Int_Orig_5_7_con.wav,5,38,3,119,38,female,70440,KoreanPoliteness_INT_KOR_KU,102,21,1,11/23/15,female,2,3,BlockProc,SpeakerBlocks,5,1,3,5,40,8,2halfPerc,4,1,8,8,366,5,F0eq_LoInt_2halfPerc_5_5_con.wav,5,28,3,120,28,female,69441,KoreanPoliteness_INT_KOR_KU,102,21,1,11/23/15,female,2,4,BlockProc,SpeakerBlocks,7,1,4,7,1,8,5Perc,3,0,8,2,943,9,F0eq_LoInt_5Perc_7_9_con.wav,7,23,4,121,23,male,70442,KoreanPoliteness_INT_KOR_KU,102,21,1,11/23/15,female,2,4,BlockProc,SpeakerBlocks,7,1,4,7,2,8,10Perc,1,0,8,2,502,9,F0eq_LoInt_10Perc_7_9_con.wav,7,7,4,122,7,male,66443,KoreanPoliteness_INT_KOR_KU,102,21,1,11/23/15,female,2,4,BlockProc,SpeakerBlocks,7,1,4,7,3,8,Orig,5,1,8,8,998,1,F0eq_Int_Orig_7_1_con.wav,7,33,4,123,33,male,73444,KoreanPoliteness_INT_KOR_KU,102,21,1,11/23/15,female,2,4,BlockProc,SpeakerBlocks,7,1,4,7,4,8,Orig,5,0,8,2,662,5,F0eq_Int_Orig_7_5_con.wav,7,36,4,124,36,male,72445,KoreanPoliteness_INT_KOR_KU,102,21,1,11/23/15,female,2,4,BlockProc,SpeakerBlocks,7,1,4,7,5,8,10Perc,1,0,8,2,463,5,F0eq_LoInt_10Perc_7_5_con.wav,7,4,4,125,4,male,65446,KoreanPoliteness_INT_KOR_KU,102,21,1,11/23/15,female,2,4,BlockProc,SpeakerBlocks,7,1,4,7,6,8,2halfPerc,4,0,8,2,277,1,F0eq_LoInt_2halfPerc_7_1_con.wav,7,25,4,126,25,male,71447,KoreanPoliteness_INT_KOR_KU,102,21,1,11/23/15,female,2,4,BlockProc,SpeakerBlocks,7,1,4,7,7,8,10Perc,1,1,8,8,498,10,F0eq_LoInt_10Perc_7_10_con.wav,7,8,4,127,8,male,65448,KoreanPoliteness_INT_KOR_KU,102,21,1,11/23/15,female,2,4,BlockProc,SpeakerBlocks,7,1,4,7,8,8,7halfPerc,2,0,8,2,773,6,F0eq_LoInt_7halfPerc_7_6_con.wav,7,13,4,128,13,male,67449,KoreanPoliteness_INT_KOR_KU,102,21,1,11/23/15,female,2,4,BlockProc,SpeakerBlocks,7,1,4,7,9,8,Orig,5,0,8,2,439,9,F0eq_Int_Orig_7_9_con.wav,7,39,4,129,39,male,73450,KoreanPoliteness_INT_KOR_KU,102,21,1,11/23/15,female,2,4,BlockProc,SpeakerBlocks,7,1,4,7,10,8,2halfPerc,4,0,8,2,135,9,F0eq_LoInt_2halfPerc_7_9_con.wav,7,31,4,130,31,male,71451,KoreanPoliteness_INT_KOR_KU,102,21,1,11/23/15,female,2,4,BlockProc,SpeakerBlocks,7,1,4,7,11,8,5Perc,3,1,8,8,264,1,F0eq_LoInt_5Perc_7_1_con.wav,7,17,4,131,17,male,69452,KoreanPoliteness_INT_KOR_KU,102,21,1,11/23/15,female,2,4,BlockProc,SpeakerBlocks,7,1,4,7,12,8,5Perc,3,0,8,2,1523,10,F0eq_LoInt_5Perc_7_10_con.wav,7,24,4,132,24,male,69453,KoreanPoliteness_INT_KOR_KU,102,21,1,11/23/15,female,2,4,BlockProc,SpeakerBlocks,7,1,4,7,13,8,5Perc,3,1,8,8,414,7,F0eq_LoInt_5Perc_7_7_con.wav,7,22,4,133,22,male,68454,KoreanPoliteness_INT_KOR_KU,102,21,1,11/23/15,female,2,4,BlockProc,SpeakerBlocks,7,1,4,7,14,8,5Perc,3,1,8,8,128,4,F0eq_LoInt_5Perc_7_4_con.wav,7,19,4,134,19,male,69455,KoreanPoliteness_INT_KOR_KU,102,21,1,11/23/15,female,2,4,BlockProc,SpeakerBlocks,7,1,4,7,15,8,7halfPerc,2,0,8,2,327,9,F0eq_LoInt_7halfPerc_7_9_con.wav,7,15,4,135,15,male,68456,KoreanPoliteness_INT_KOR_KU,102,21,1,11/23/15,female,2,4,BlockProc,SpeakerBlocks,7,1,4,7,16,8,2halfPerc,4,0,8,2,171,5,F0eq_LoInt_2halfPerc_7_5_con.wav,7,28,4,136,28,male,70457,KoreanPoliteness_INT_KOR_KU,102,21,1,11/23/15,female,2,4,BlockProc,SpeakerBlocks,7,1,4,7,17,8,2halfPerc,4,0,8,2,1205,6,F0eq_LoInt_2halfPerc_7_6_con.wav,7,29,4,137,29,male,71458,KoreanPoliteness_INT_KOR_KU,102,21,1,11/23/15,female,2,4,BlockProc,SpeakerBlocks,7,1,4,7,18,8,7halfPerc,2,0,8,2,298,1,F0eq_LoInt_7halfPerc_7_1_con.wav,7,9,4,138,9,male,68459,KoreanPoliteness_INT_KOR_KU,102,21,1,11/23/15,female,2,4,BlockProc,SpeakerBlocks,7,1,4,7,19,8,10Perc,1,1,8,8,2691,6,F0eq_LoInt_10Perc_7_6_con.wav,7,5,4,139,5,male,65460,KoreanPoliteness_INT_KOR_KU,102,21,1,11/23/15,female,2,4,BlockProc,SpeakerBlocks,7,1,4,7,20,8,2halfPerc,4,1,8,8,46,7,F0eq_LoInt_2halfPerc_7_7_con.wav,7,30,4,140,30,male,70461,KoreanPoliteness_INT_KOR_KU,102,21,1,11/23/15,female,2,4,BlockProc,SpeakerBlocks,7,1,4,7,21,8,7halfPerc,2,1,8,8,2868,10,F0eq_LoInt_7halfPerc_7_10_con.wav,7,16,4,141,16,male,67462,KoreanPoliteness_INT_KOR_KU,102,21,1,11/23/15,female,2,4,BlockProc,SpeakerBlocks,7,1,4,7,22,8,7halfPerc,2,0,8,2,684,7,F0eq_LoInt_7halfPerc_7_7_con.wav,7,14,4,142,14,male,66463,KoreanPoliteness_INT_KOR_KU,102,21,1,11/23/15,female,2,4,BlockProc,SpeakerBlocks,7,1,4,7,23,8,5Perc,3,0,8,2,460,2,F0eq_LoInt_5Perc_7_2_con.wav,7,18,4,143,18,male,69464,KoreanPoliteness_INT_KOR_KU,102,21,1,11/23/15,female,2,4,BlockProc,SpeakerBlocks,7,1,4,7,24,8,Orig,5,0,8,2,1223,4,F0eq_Int_Orig_7_4_con.wav,7,35,4,144,35,male,73465,KoreanPoliteness_INT_KOR_KU,102,21,1,11/23/15,female,2,4,BlockProc,SpeakerBlocks,7,1,4,7,25,8,10Perc,1,1,8,8,88,4,F0eq_LoInt_10Perc_7_4_con.wav,7,3,4,145,3,male,65466,KoreanPoliteness_INT_KOR_KU,102,21,1,11/23/15,female,2,4,BlockProc,SpeakerBlocks,7,1,4,7,26,8,10Perc,1,1,8,8,504,1,F0eq_LoInt_10Perc_7_1_con.wav,7,1,4,146,1,male,66467,KoreanPoliteness_INT_KOR_KU,102,21,1,11/23/15,female,2,4,BlockProc,SpeakerBlocks,7,1,4,7,27,8,7halfPerc,2,1,8,8,91,4,F0eq_LoInt_7halfPerc_7_4_con.wav,7,11,4,147,11,male,67468,KoreanPoliteness_INT_KOR_KU,102,21,1,11/23/15,female,2,4,BlockProc,SpeakerBlocks,7,1,4,7,28,8,Orig,5,1,8,8,598,10,F0eq_Int_Orig_7_10_con.wav,7,40,4,148,40,male,73469,KoreanPoliteness_INT_KOR_KU,102,21,1,11/23/15,female,2,4,BlockProc,SpeakerBlocks,7,1,4,7,29,8,2halfPerc,4,1,8,8,18,10,F0eq_LoInt_2halfPerc_7_10_con.wav,7,32,4,149,32,male,71470,KoreanPoliteness_INT_KOR_KU,102,21,1,11/23/15,female,2,4,BlockProc,SpeakerBlocks,7,1,4,7,30,8,5Perc,3,1,8,8,653,6,F0eq_LoInt_5Perc_7_6_con.wav,7,21,4,150,21,male,69471,KoreanPoliteness_INT_KOR_KU,102,21,1,11/23/15,female,2,4,BlockProc,SpeakerBlocks,7,1,4,7,31,8,5Perc,3,1,8,8,522,5,F0eq_LoInt_5Perc_7_5_con.wav,7,20,4,151,20,male,69472,KoreanPoliteness_INT_KOR_KU,102,21,1,11/23/15,female,2,4,BlockProc,SpeakerBlocks,7,1,4,7,32,8,Orig,5,0,8,2,546,2,F0eq_Int_Orig_7_2_con.wav,7,34,4,152,34,male,72473,KoreanPoliteness_INT_KOR_KU,102,21,1,11/23/15,female,2,4,BlockProc,SpeakerBlocks,7,1,4,7,33,8,7halfPerc,2,0,8,2,100,2,F0eq_LoInt_7halfPerc_7_2_con.wav,7,10,4,153,10,male,67474,KoreanPoliteness_INT_KOR_KU,102,21,1,11/23/15,female,2,4,BlockProc,SpeakerBlocks,7,1,4,7,34,8,Orig,5,0,8,2,889,6,F0eq_Int_Orig_7_6_con.wav,7,37,4,154,37,male,72475,KoreanPoliteness_INT_KOR_KU,102,21,1,11/23/15,female,2,4,BlockProc,SpeakerBlocks,7,1,4,7,35,8,7halfPerc,2,1,8,8,1641,5,F0eq_LoInt_7halfPerc_7_5_con.wav,7,12,4,155,12,male,67476,KoreanPoliteness_INT_KOR_KU,102,21,1,11/23/15,female,2,4,BlockProc,SpeakerBlocks,7,1,4,7,36,8,10Perc,1,1,8,8,249,7,F0eq_LoInt_10Perc_7_7_con.wav,7,6,4,156,6,male,64477,KoreanPoliteness_INT_KOR_KU,102,21,1,11/23/15,female,2,4,BlockProc,SpeakerBlocks,7,1,4,7,37,8,2halfPerc,4,1,8,8,48,2,F0eq_LoInt_2halfPerc_7_2_con.wav,7,26,4,157,26,male,71478,KoreanPoliteness_INT_KOR_KU,102,21,1,11/23/15,female,2,4,BlockProc,SpeakerBlocks,7,1,4,7,38,8,Orig,5,0,8,2,242,7,F0eq_Int_Orig_7_7_con.wav,7,38,4,158,38,male,72479,KoreanPoliteness_INT_KOR_KU,102,21,1,11/23/15,female,2,4,BlockProc,SpeakerBlocks,7,1,4,7,39,8,2halfPerc,4,0,8,2,650,4,F0eq_LoInt_2halfPerc_7_4_con.wav,7,27,4,159,27,male,71480,KoreanPoliteness_INT_KOR_KU,102,21,1,11/23/15,female,2,4,BlockProc,SpeakerBlocks,7,1,4,7,40,8,10Perc,1,0,8,2,276,2,F0eq_LoInt_10Perc_7_2_con.wav,7,2,4,160,2,male,65481,KoreanPoliteness_INT_KOR_KU,102,21,1,11/23/15,female,2,5,BlockProc,SpeakerBlocks,2,1,5,2,1,8,7halfPerc,2,0,8,2,572,7,F0eq_LoInt_7halfPerc_2_7_con.wav,2,14,5,161,14,female,55482,KoreanPoliteness_INT_KOR_KU,102,21,1,11/23/15,female,2,5,BlockProc,SpeakerBlocks,2,1,5,2,2,8,2halfPerc,4,0,8,2,13,6,F0eq_LoInt_2halfPerc_2_6_con.wav,2,29,5,162,29,female,59483,KoreanPoliteness_INT_KOR_KU,102,21,1,11/23/15,female,2,5,BlockProc,SpeakerBlocks,2,1,5,2,3,8,10Perc,1,0,8,2,132,7,F0eq_LoInt_10Perc_2_7_con.wav,2,6,5,163,6,female,54484,KoreanPoliteness_INT_KOR_KU,102,21,1,11/23/15,female,2,5,BlockProc,SpeakerBlocks,2,1,5,2,4,8,7halfPerc,2,0,8,2,117,6,F0eq_LoInt_7halfPerc_2_6_con.wav,2,13,5,164,13,female,56485,KoreanPoliteness_INT_KOR_KU,102,21,1,11/23/15,female,2,5,BlockProc,SpeakerBlocks,2,1,5,2,5,8,Orig,5,1,8,8,293,7,F0eq_Int_Orig_2_7_con.wav,2,38,5,165,38,female,59486,KoreanPoliteness_INT_KOR_KU,102,21,1,11/23/15,female,2,5,BlockProc,SpeakerBlocks,2,1,5,2,6,8,5Perc,3,0,8,2,194,10,F0eq_LoInt_5Perc_2_10_con.wav,2,24,5,166,24,female,57487,KoreanPoliteness_INT_KOR_KU,102,21,1,11/23/15,female,2,5,BlockProc,SpeakerBlocks,2,1,5,2,7,8,5Perc,3,1,8,8,185,7,F0eq_LoInt_5Perc_2_7_con.wav,2,22,5,167,22,female,57488,KoreanPoliteness_INT_KOR_KU,102,21,1,11/23/15,female,2,5,BlockProc,SpeakerBlocks,2,1,5,2,8,8,Orig,5,1,8,8,976,1,F0eq_Int_Orig_2_1_con.wav,2,33,5,168,33,female,59489,KoreanPoliteness_INT_KOR_KU,102,21,1,11/23/15,female,2,5,BlockProc,SpeakerBlocks,2,1,5,2,9,8,Orig,5,0,8,2,8,9,F0eq_Int_Orig_2_9_con.wav,2,39,5,169,39,female,60490,KoreanPoliteness_INT_KOR_KU,102,21,1,11/23/15,female,2,5,BlockProc,SpeakerBlocks,2,1,5,2,10,8,7halfPerc,2,0,8,2,59,4,F0eq_LoInt_7halfPerc_2_4_con.wav,2,11,5,170,11,female,57491,KoreanPoliteness_INT_KOR_KU,102,21,1,11/23/15,female,2,5,BlockProc,SpeakerBlocks,2,1,5,2,11,8,Orig,5,0,8,2,348,10,F0eq_Int_Orig_2_10_con.wav,2,40,5,171,40,female,60492,KoreanPoliteness_INT_KOR_KU,102,21,1,11/23/15,female,2,5,BlockProc,SpeakerBlocks,2,1,5,2,12,8,2halfPerc,4,1,8,8,369,4,F0eq_LoInt_2halfPerc_2_4_con.wav,2,27,5,172,27,female,61493,KoreanPoliteness_INT_KOR_KU,102,21,1,11/23/15,female,2,5,BlockProc,SpeakerBlocks,2,1,5,2,13,8,2halfPerc,4,1,8,8,634,7,F0eq_LoInt_2halfPerc_2_7_con.wav,2,30,5,173,30,female,58494,KoreanPoliteness_INT_KOR_KU,102,21,1,11/23/15,female,2,5,BlockProc,SpeakerBlocks,2,1,5,2,14,8,2halfPerc,4,1,8,8,126,10,F0eq_LoInt_2halfPerc_2_10_con.wav,2,32,5,174,32,female,58495,KoreanPoliteness_INT_KOR_KU,102,21,1,11/23/15,female,2,5,BlockProc,SpeakerBlocks,2,1,5,2,15,8,10Perc,1,0,8,2,2750,10,F0eq_LoInt_10Perc_2_10_con.wav,2,8,5,175,8,female,54496,KoreanPoliteness_INT_KOR_KU,102,21,1,11/23/15,female,2,5,BlockProc,SpeakerBlocks,2,1,5,2,16,8,5Perc,3,0,8,2,1032,2,F0eq_LoInt_5Perc_2_2_con.wav,2,18,5,176,18,female,57497,KoreanPoliteness_INT_KOR_KU,102,21,1,11/23/15,female,2,5,BlockProc,SpeakerBlocks,2,1,5,2,17,8,5Perc,3,0,8,2,793,9,F0eq_LoInt_5Perc_2_9_con.wav,2,23,5,177,23,female,57498,KoreanPoliteness_INT_KOR_KU,102,21,1,11/23/15,female,2,5,BlockProc,SpeakerBlocks,2,1,5,2,18,8,7halfPerc,2,1,8,8,2864,10,F0eq_LoInt_7halfPerc_2_10_con.wav,2,16,5,178,16,female,55499,KoreanPoliteness_INT_KOR_KU,102,21,1,11/23/15,female,2,5,BlockProc,SpeakerBlocks,2,1,5,2,19,8,5Perc,3,1,8,8,2409,1,F0eq_LoInt_5Perc_2_1_con.wav,2,17,5,179,17,female,56500,KoreanPoliteness_INT_KOR_KU,102,21,1,11/23/15,female,2,5,BlockProc,SpeakerBlocks,2,1,5,2,20,8,7halfPerc,2,1,8,8,12,5,F0eq_LoInt_7halfPerc_2_5_con.wav,2,12,5,180,12,female,55501,KoreanPoliteness_INT_KOR_KU,102,21,1,11/23/15,female,2,5,BlockProc,SpeakerBlocks,2,1,5,2,21,8,Orig,5,1,8,8,200,2,F0eq_Int_Orig_2_2_con.wav,2,34,5,181,34,female,60502,KoreanPoliteness_INT_KOR_KU,102,21,1,11/23/15,female,2,5,BlockProc,SpeakerBlocks,2,1,5,2,22,8,Orig,5,0,8,2,216,4,F0eq_Int_Orig_2_4_con.wav,2,35,5,182,35,female,62503,KoreanPoliteness_INT_KOR_KU,102,21,1,11/23/15,female,2,5,BlockProc,SpeakerBlocks,2,1,5,2,23,8,Orig,5,1,8,8,87,5,F0eq_Int_Orig_2_5_con.wav,2,36,5,183,36,female,60504,KoreanPoliteness_INT_KOR_KU,102,21,1,11/23/15,female,2,5,BlockProc,SpeakerBlocks,2,1,5,2,24,8,Orig,5,0,8,2,771,6,F0eq_Int_Orig_2_6_con.wav,2,37,5,184,37,female,61505,KoreanPoliteness_INT_KOR_KU,102,21,1,11/23/15,female,2,5,BlockProc,SpeakerBlocks,2,1,5,2,25,8,2halfPerc,4,1,8,8,614,1,F0eq_LoInt_2halfPerc_2_1_con.wav,2,25,5,185,25,female,57506,KoreanPoliteness_INT_KOR_KU,102,21,1,11/23/15,female,2,5,BlockProc,SpeakerBlocks,2,1,5,2,26,8,2halfPerc,4,1,8,8,2998,5,F0eq_LoInt_2halfPerc_2_5_con.wav,2,28,5,186,28,female,58507,KoreanPoliteness_INT_KOR_KU,102,21,1,11/23/15,female,2,5,BlockProc,SpeakerBlocks,2,1,5,2,27,8,5Perc,3,0,8,,0,4,F0eq_LoInt_5Perc_2_4_con.wav,2,19,5,187,19,female,59508,KoreanPoliteness_INT_KOR_KU,102,21,1,11/23/15,female,2,5,BlockProc,SpeakerBlocks,2,1,5,2,28,8,2halfPerc,4,1,8,8,39,9,F0eq_LoInt_2halfPerc_2_9_con.wav,2,31,5,188,31,female,58509,KoreanPoliteness_INT_KOR_KU,102,21,1,11/23/15,female,2,5,BlockProc,SpeakerBlocks,2,1,5,2,29,8,7halfPerc,2,0,8,2,373,2,F0eq_LoInt_7halfPerc_2_2_con.wav,2,10,5,189,10,female,56510,KoreanPoliteness_INT_KOR_KU,102,21,1,11/23/15,female,2,5,BlockProc,SpeakerBlocks,2,1,5,2,30,8,10Perc,1,0,8,2,433,9,F0eq_LoInt_10Perc_2_9_con.wav,2,7,5,190,7,female,54511,KoreanPoliteness_INT_KOR_KU,102,21,1,11/23/15,female,2,5,BlockProc,SpeakerBlocks,2,1,5,2,31,8,10Perc,1,0,8,2,193,1,F0eq_LoInt_10Perc_2_1_con.wav,2,1,5,191,1,female,53512,KoreanPoliteness_INT_KOR_KU,102,21,1,11/23/15,female,2,5,BlockProc,SpeakerBlocks,2,1,5,2,32,8,5Perc,3,0,8,2,1672,5,F0eq_LoInt_5Perc_2_5_con.wav,2,20,5,192,20,female,57513,KoreanPoliteness_INT_KOR_KU,102,21,1,11/23/15,female,2,5,BlockProc,SpeakerBlocks,2,1,5,2,33,8,2halfPerc,4,0,8,2,195,2,F0eq_LoInt_2halfPerc_2_2_con.wav,2,26,5,193,26,female,59514,KoreanPoliteness_INT_KOR_KU,102,21,1,11/23/15,female,2,5,BlockProc,SpeakerBlocks,2,1,5,2,34,8,10Perc,1,0,8,,0,4,F0eq_LoInt_10Perc_2_4_con.wav,2,3,5,194,3,female,56515,KoreanPoliteness_INT_KOR_KU,102,21,1,11/23/15,female,2,5,BlockProc,SpeakerBlocks,2,1,5,2,35,8,10Perc,1,1,8,8,86,6,F0eq_LoInt_10Perc_2_6_con.wav,2,5,5,195,5,female,55516,KoreanPoliteness_INT_KOR_KU,102,21,1,11/23/15,female,2,5,BlockProc,SpeakerBlocks,2,1,5,2,36,8,10Perc,1,0,8,2,147,5,F0eq_LoInt_10Perc_2_5_con.wav,2,4,5,196,4,female,54517,KoreanPoliteness_INT_KOR_KU,102,21,1,11/23/15,female,2,5,BlockProc,SpeakerBlocks,2,1,5,2,37,8,5Perc,3,0,8,,0,6,F0eq_LoInt_5Perc_2_6_con.wav,2,21,5,197,21,female,58518,KoreanPoliteness_INT_KOR_KU,102,21,1,11/23/15,female,2,5,BlockProc,SpeakerBlocks,2,1,5,2,38,8,10Perc,1,1,8,8,386,2,F0eq_LoInt_10Perc_2_2_con.wav,2,2,5,198,2,female,54519,KoreanPoliteness_INT_KOR_KU,102,21,1,11/23/15,female,2,5,BlockProc,SpeakerBlocks,2,1,5,2,39,8,7halfPerc,2,0,8,,0,9,F0eq_LoInt_7halfPerc_2_9_con.wav,2,15,5,199,15,female,55520,KoreanPoliteness_INT_KOR_KU,102,21,1,11/23/15,female,2,5,BlockProc,SpeakerBlocks,2,1,5,2,40,8,7halfPerc,2,1,8,8,2237,1,F0eq_LoInt_7halfPerc_2_1_con.wav,2,9,5,200,9,female,54521,KoreanPoliteness_INT_KOR_KU,102,21,1,11/23/15,female,2,6,BlockProc,SpeakerBlocks,6,1,6,6,1,8,2halfPerc,4,1,8,8,192,4,F0eq_LoInt_2halfPerc_6_4_con.wav,6,27,6,201,27,female,72522,KoreanPoliteness_INT_KOR_KU,102,21,1,11/23/15,female,2,6,BlockProc,SpeakerBlocks,6,1,6,6,2,8,Orig,5,0,8,2,409,6,F0eq_Int_Orig_6_6_con.wav,6,37,6,202,37,female,74523,KoreanPoliteness_INT_KOR_KU,102,21,1,11/23/15,female,2,6,BlockProc,SpeakerBlocks,6,1,6,6,3,8,Orig,5,1,8,8,308,5,F0eq_Int_Orig_6_5_con.wav,6,36,6,203,36,female,74524,KoreanPoliteness_INT_KOR_KU,102,21,1,11/23/15,female,2,6,BlockProc,SpeakerBlocks,6,1,6,6,4,8,5Perc,3,0,8,2,500,10,F0eq_LoInt_5Perc_6_10_con.wav,6,24,6,204,24,female,71525,KoreanPoliteness_INT_KOR_KU,102,21,1,11/23/15,female,2,6,BlockProc,SpeakerBlocks,6,1,6,6,5,8,Orig,5,0,8,2,464,1,F0eq_Int_Orig_6_1_con.wav,6,33,6,205,33,female,74526,KoreanPoliteness_INT_KOR_KU,102,21,1,11/23/15,female,2,6,BlockProc,SpeakerBlocks,6,1,6,6,6,8,2halfPerc,4,0,8,2,817,9,F0eq_LoInt_2halfPerc_6_9_con.wav,6,31,6,206,31,female,73527,KoreanPoliteness_INT_KOR_KU,102,21,1,11/23/15,female,2,6,BlockProc,SpeakerBlocks,6,1,6,6,7,8,10Perc,1,0,8,,0,5,F0eq_LoInt_10Perc_6_5_con.wav,6,4,6,207,4,female,67528,KoreanPoliteness_INT_KOR_KU,102,21,1,11/23/15,female,2,6,BlockProc,SpeakerBlocks,6,1,6,6,8,8,10Perc,1,0,8,2,431,10,F0eq_LoInt_10Perc_6_10_con.wav,6,8,6,208,8,female,67529,KoreanPoliteness_INT_KOR_KU,102,21,1,11/23/15,female,2,6,BlockProc,SpeakerBlocks,6,1,6,6,9,8,Orig,5,1,8,8,573,7,F0eq_Int_Orig_6_7_con.wav,6,38,6,209,38,female,72530,KoreanPoliteness_INT_KOR_KU,102,21,1,11/23/15,female,2,6,BlockProc,SpeakerBlocks,6,1,6,6,10,8,5Perc,3,1,8,8,422,7,F0eq_LoInt_5Perc_6_7_con.wav,6,22,6,210,22,female,69531,KoreanPoliteness_INT_KOR_KU,102,21,1,11/23/15,female,2,6,BlockProc,SpeakerBlocks,6,1,6,6,11,8,2halfPerc,4,0,8,,0,1,F0eq_LoInt_2halfPerc_6_1_con.wav,6,25,6,211,25,female,72532,KoreanPoliteness_INT_KOR_KU,102,21,1,11/23/15,female,2,6,BlockProc,SpeakerBlocks,6,1,6,6,12,8,Orig,5,0,8,2,428,4,F0eq_Int_Orig_6_4_con.wav,6,35,6,212,35,female,74533,KoreanPoliteness_INT_KOR_KU,102,21,1,11/23/15,female,2,6,BlockProc,SpeakerBlocks,6,1,6,6,13,8,2halfPerc,4,0,8,2,163,7,F0eq_LoInt_2halfPerc_6_7_con.wav,6,30,6,213,30,female,71534,KoreanPoliteness_INT_KOR_KU,102,21,1,11/23/15,female,2,6,BlockProc,SpeakerBlocks,6,1,6,6,14,8,Orig,5,0,8,2,396,9,F0eq_Int_Orig_6_9_con.wav,6,39,6,214,39,female,75535,KoreanPoliteness_INT_KOR_KU,102,21,1,11/23/15,female,2,6,BlockProc,SpeakerBlocks,6,1,6,6,15,8,7halfPerc,2,1,8,8,203,2,F0eq_LoInt_7halfPerc_6_2_con.wav,6,10,6,215,10,female,68536,KoreanPoliteness_INT_KOR_KU,102,21,1,11/23/15,female,2,6,BlockProc,SpeakerBlocks,6,1,6,6,16,8,10Perc,1,0,8,2,1709,7,F0eq_LoInt_10Perc_6_7_con.wav,6,6,6,216,6,female,65537,KoreanPoliteness_INT_KOR_KU,102,21,1,11/23/15,female,2,6,BlockProc,SpeakerBlocks,6,1,6,6,17,8,7halfPerc,2,1,8,8,686,1,F0eq_LoInt_7halfPerc_6_1_con.wav,6,9,6,217,9,female,68538,KoreanPoliteness_INT_KOR_KU,102,21,1,11/23/15,female,2,6,BlockProc,SpeakerBlocks,6,1,6,6,18,8,2halfPerc,4,0,8,,0,5,F0eq_LoInt_2halfPerc_6_5_con.wav,6,28,6,218,28,female,72539,KoreanPoliteness_INT_KOR_KU,102,21,1,11/23/15,female,2,6,BlockProc,SpeakerBlocks,6,1,6,6,19,8,5Perc,3,1,8,8,177,2,F0eq_LoInt_5Perc_6_2_con.wav,6,18,6,219,18,female,70540,KoreanPoliteness_INT_KOR_KU,102,21,1,11/23/15,female,2,6,BlockProc,SpeakerBlocks,6,1,6,6,20,8,Orig,5,1,8,8,2280,2,F0eq_Int_Orig_6_2_con.wav,6,34,6,220,34,female,74541,KoreanPoliteness_INT_KOR_KU,102,21,1,11/23/15,female,2,6,BlockProc,SpeakerBlocks,6,1,6,6,21,8,10Perc,1,0,8,2,379,4,F0eq_LoInt_10Perc_6_4_con.wav,6,3,6,221,3,female,67542,KoreanPoliteness_INT_KOR_KU,102,21,1,11/23/15,female,2,6,BlockProc,SpeakerBlocks,6,1,6,6,22,8,2halfPerc,4,0,8,2,2284,10,F0eq_LoInt_2halfPerc_6_10_con.wav,6,32,6,222,32,female,73543,KoreanPoliteness_INT_KOR_KU,102,21,1,11/23/15,female,2,6,BlockProc,SpeakerBlocks,6,1,6,6,23,8,10Perc,1,1,8,8,744,6,F0eq_LoInt_10Perc_6_6_con.wav,6,5,6,223,5,female,67544,KoreanPoliteness_INT_KOR_KU,102,21,1,11/23/15,female,2,6,BlockProc,SpeakerBlocks,6,1,6,6,24,8,5Perc,3,0,8,2,577,9,F0eq_LoInt_5Perc_6_9_con.wav,6,23,6,224,23,female,71545,KoreanPoliteness_INT_KOR_KU,102,21,1,11/23/15,female,2,6,BlockProc,SpeakerBlocks,6,1,6,6,25,8,2halfPerc,4,1,8,8,543,2,F0eq_LoInt_2halfPerc_6_2_con.wav,6,26,6,225,26,female,72546,KoreanPoliteness_INT_KOR_KU,102,21,1,11/23/15,female,2,6,BlockProc,SpeakerBlocks,6,1,6,6,26,8,5Perc,3,0,8,,0,1,F0eq_LoInt_5Perc_6_1_con.wav,6,17,6,226,17,female,70547,KoreanPoliteness_INT_KOR_KU,102,21,1,11/23/15,female,2,6,BlockProc,SpeakerBlocks,6,1,6,6,27,8,10Perc,1,0,8,,0,1,F0eq_LoInt_10Perc_6_1_con.wav,6,1,6,227,1,female,66548,KoreanPoliteness_INT_KOR_KU,102,21,1,11/23/15,female,2,6,BlockProc,SpeakerBlocks,6,1,6,6,28,8,7halfPerc,2,0,8,,0,6,F0eq_LoInt_7halfPerc_6_6_con.wav,6,13,6,228,13,female,69549,KoreanPoliteness_INT_KOR_KU,102,21,1,11/23/15,female,2,6,BlockProc,SpeakerBlocks,6,1,6,6,29,8,7halfPerc,2,0,8,2,1033,10,F0eq_LoInt_7halfPerc_6_10_con.wav,6,16,6,229,16,female,69550,KoreanPoliteness_INT_KOR_KU,102,21,1,11/23/15,female,2,6,BlockProc,SpeakerBlocks,6,1,6,6,30,8,5Perc,3,1,8,8,202,4,F0eq_LoInt_5Perc_6_4_con.wav,6,19,6,230,19,female,70551,KoreanPoliteness_INT_KOR_KU,102,21,1,11/23/15,female,2,6,BlockProc,SpeakerBlocks,6,1,6,6,31,8,Orig,5,0,8,2,2154,10,F0eq_Int_Orig_6_10_con.wav,6,40,6,231,40,female,75552,KoreanPoliteness_INT_KOR_KU,102,21,1,11/23/15,female,2,6,BlockProc,SpeakerBlocks,6,1,6,6,32,8,7halfPerc,2,0,8,2,7,5,F0eq_LoInt_7halfPerc_6_5_con.wav,6,12,6,232,12,female,69553,KoreanPoliteness_INT_KOR_KU,102,21,1,11/23/15,female,2,6,BlockProc,SpeakerBlocks,6,1,6,6,33,8,7halfPerc,2,0,8,,0,4,F0eq_LoInt_7halfPerc_6_4_con.wav,6,11,6,233,11,female,68554,KoreanPoliteness_INT_KOR_KU,102,21,1,11/23/15,female,2,6,BlockProc,SpeakerBlocks,6,1,6,6,34,8,10Perc,1,1,8,8,462,2,F0eq_LoInt_10Perc_6_2_con.wav,6,2,6,234,2,female,66555,KoreanPoliteness_INT_KOR_KU,102,21,1,11/23/15,female,2,6,BlockProc,SpeakerBlocks,6,1,6,6,35,8,5Perc,3,0,8,2,1008,6,F0eq_LoInt_5Perc_6_6_con.wav,6,21,6,235,21,female,70556,KoreanPoliteness_INT_KOR_KU,102,21,1,11/23/15,female,2,6,BlockProc,SpeakerBlocks,6,1,6,6,36,8,10Perc,1,1,8,8,331,9,F0eq_LoInt_10Perc_6_9_con.wav,6,7,6,236,7,female,67557,KoreanPoliteness_INT_KOR_KU,102,21,1,11/23/15,female,2,6,BlockProc,SpeakerBlocks,6,1,6,6,37,8,5Perc,3,0,8,2,631,5,F0eq_LoInt_5Perc_6_5_con.wav,6,20,6,237,20,female,71558,KoreanPoliteness_INT_KOR_KU,102,21,1,11/23/15,female,2,6,BlockProc,SpeakerBlocks,6,1,6,6,38,8,2halfPerc,4,1,8,8,356,6,F0eq_LoInt_2halfPerc_6_6_con.wav,6,29,6,238,29,female,72559,KoreanPoliteness_INT_KOR_KU,102,21,1,11/23/15,female,2,6,BlockProc,SpeakerBlocks,6,1,6,6,39,8,7halfPerc,2,0,8,,0,9,F0eq_LoInt_7halfPerc_6_9_con.wav,6,15,6,239,15,female,69560,KoreanPoliteness_INT_KOR_KU,102,21,1,11/23/15,female,2,6,BlockProc,SpeakerBlocks,6,1,6,6,40,8,7halfPerc,2,0,8,,0,7,F0eq_LoInt_7halfPerc_6_7_con.wav,6,14,6,240,14,female,67561,KoreanPoliteness_INT_KOR_KU,102,21,1,11/23/15,female,2,7,BlockProc,SpeakerBlocks,8,1,7,8,1,8,7halfPerc,2,0,8,2,911,5,F0eq_LoInt_7halfPerc_8_5_con.wav,8,12,7,241,12,male,65562,KoreanPoliteness_INT_KOR_KU,102,21,1,11/23/15,female,2,7,BlockProc,SpeakerBlocks,8,1,7,8,2,8,5Perc,3,1,8,8,413,9,F0eq_LoInt_5Perc_8_9_con.wav,8,23,7,242,23,male,69563,KoreanPoliteness_INT_KOR_KU,102,21,1,11/23/15,female,2,7,BlockProc,SpeakerBlocks,8,1,7,8,3,8,10Perc,1,1,8,8,773,1,F0eq_LoInt_10Perc_8_1_con.wav,8,1,7,243,1,male,60564,KoreanPoliteness_INT_KOR_KU,102,21,1,11/23/15,female,2,7,BlockProc,SpeakerBlocks,8,1,7,8,4,8,7halfPerc,2,0,8,2,360,10,F0eq_LoInt_7halfPerc_8_10_con.wav,8,16,7,244,16,male,67565,KoreanPoliteness_INT_KOR_KU,102,21,1,11/23/15,female,2,7,BlockProc,SpeakerBlocks,8,1,7,8,5,8,5Perc,3,1,8,8,577,7,F0eq_LoInt_5Perc_8_7_con.wav,8,22,7,245,22,male,68566,KoreanPoliteness_INT_KOR_KU,102,21,1,11/23/15,female,2,7,BlockProc,SpeakerBlocks,8,1,7,8,6,8,10Perc,1,0,8,2,103,10,F0eq_LoInt_10Perc_8_10_con.wav,8,8,7,246,8,male,65567,KoreanPoliteness_INT_KOR_KU,102,21,1,11/23/15,female,2,7,BlockProc,SpeakerBlocks,8,1,7,8,7,8,2halfPerc,4,0,8,2,297,6,F0eq_LoInt_2halfPerc_8_6_con.wav,8,29,7,247,29,male,70568,KoreanPoliteness_INT_KOR_KU,102,21,1,11/23/15,female,2,7,BlockProc,SpeakerBlocks,8,1,7,8,8,8,2halfPerc,4,1,8,8,575,9,F0eq_LoInt_2halfPerc_8_9_con.wav,8,31,7,248,31,male,71569,KoreanPoliteness_INT_KOR_KU,102,21,1,11/23/15,female,2,7,BlockProc,SpeakerBlocks,8,1,7,8,9,8,Orig,5,1,8,8,217,6,F0eq_Int_Orig_8_6_con.wav,8,37,7,249,37,male,72570,KoreanPoliteness_INT_KOR_KU,102,21,1,11/23/15,female,2,7,BlockProc,SpeakerBlocks,8,1,7,8,10,8,Orig,5,1,8,8,1614,1,F0eq_Int_Orig_8_1_con.wav,8,33,7,250,33,male,67571,KoreanPoliteness_INT_KOR_KU,102,21,1,11/23/15,female,2,7,BlockProc,SpeakerBlocks,8,1,7,8,11,8,2halfPerc,4,1,8,8,226,7,F0eq_LoInt_2halfPerc_8_7_con.wav,8,30,7,251,30,male,70572,KoreanPoliteness_INT_KOR_KU,102,21,1,11/23/15,female,2,7,BlockProc,SpeakerBlocks,8,1,7,8,12,8,2halfPerc,4,1,8,8,749,4,F0eq_LoInt_2halfPerc_8_4_con.wav,8,27,7,252,27,male,70573,KoreanPoliteness_INT_KOR_KU,102,21,1,11/23/15,female,2,7,BlockProc,SpeakerBlocks,8,1,7,8,13,8,10Perc,1,1,8,8,2141,4,F0eq_LoInt_10Perc_8_4_con.wav,8,3,7,253,3,male,65574,KoreanPoliteness_INT_KOR_KU,102,21,1,11/23/15,female,2,7,BlockProc,SpeakerBlocks,8,1,7,8,14,8,7halfPerc,2,1,8,8,154,9,F0eq_LoInt_7halfPerc_8_9_con.wav,8,15,7,254,15,male,68575,KoreanPoliteness_INT_KOR_KU,102,21,1,11/23/15,female,2,7,BlockProc,SpeakerBlocks,8,1,7,8,15,8,Orig,5,0,8,2,218,5,F0eq_Int_Orig_8_5_con.wav,8,36,7,255,36,male,70576,KoreanPoliteness_INT_KOR_KU,102,21,1,11/23/15,female,2,7,BlockProc,SpeakerBlocks,8,1,7,8,16,8,10Perc,1,1,8,8,464,2,F0eq_LoInt_10Perc_8_2_con.wav,8,2,7,256,2,male,63577,KoreanPoliteness_INT_KOR_KU,102,21,1,11/23/15,female,2,7,BlockProc,SpeakerBlocks,8,1,7,8,17,8,7halfPerc,2,0,8,2,715,7,F0eq_LoInt_7halfPerc_8_7_con.wav,8,14,7,257,14,male,66578,KoreanPoliteness_INT_KOR_KU,102,21,1,11/23/15,female,2,7,BlockProc,SpeakerBlocks,8,1,7,8,18,8,5Perc,3,0,8,2,589,2,F0eq_LoInt_5Perc_8_2_con.wav,8,18,7,258,18,male,66579,KoreanPoliteness_INT_KOR_KU,102,21,1,11/23/15,female,2,7,BlockProc,SpeakerBlocks,8,1,7,8,19,8,10Perc,1,0,8,,0,6,F0eq_LoInt_10Perc_8_6_con.wav,8,5,7,259,5,male,65580,KoreanPoliteness_INT_KOR_KU,102,21,1,11/23/15,female,2,7,BlockProc,SpeakerBlocks,8,1,7,8,20,8,5Perc,3,0,8,,0,1,F0eq_LoInt_5Perc_8_1_con.wav,8,17,7,260,17,male,64581,KoreanPoliteness_INT_KOR_KU,102,21,1,11/23/15,female,2,7,BlockProc,SpeakerBlocks,8,1,7,8,21,8,10Perc,1,0,8,,0,5,F0eq_LoInt_10Perc_8_5_con.wav,8,4,7,261,4,male,63582,KoreanPoliteness_INT_KOR_KU,102,21,1,11/23/15,female,2,7,BlockProc,SpeakerBlocks,8,1,7,8,22,8,Orig,5,0,8,,0,2,F0eq_Int_Orig_8_2_con.wav,8,34,7,262,34,male,70