DataID,ExperimentName,Subject,Age,Group,SessionDate,Sex,Block,Trial,Procedure[Trial],Running[Trial],SpeakerBlocks,SpeakerBlocks.Cycle,SpeakerBlocks.Sample,SpeakerNum,SubTrial,ConResp[SubTrial],F0Level,F0LevelNum,RespK.ACC[SubTrial],RespK.CRESP[SubTrial],RespK.RESP[SubTrial],RespK.RT[SubTrial],Scenario[SubTrial],SoundFile[SubTrial],Speaker[SubTrial],StimList,StimList.Cycle,StimList.Sample,StimNum,SpeakerSex,StimF01,KoreanPoliteness_F0_KOR_KU,1,22,1,11/23/15,female,2,1,BlockProc,SpeakerBlocks,6,1,1,6,1,8,MidHi,4,0,8,2,1077,6,08Perc_HiF0_6_6_con.wav,6,13,1,1,13,female,2112,KoreanPoliteness_F0_KOR_KU,1,22,1,11/23/15,female,2,1,BlockProc,SpeakerBlocks,6,1,1,6,2,8,Orig,3,1,8,8,799,2,6_2_con.wav,6,34,1,2,34,female,1883,KoreanPoliteness_F0_KOR_KU,1,22,1,11/23/15,female,2,1,BlockProc,SpeakerBlocks,6,1,1,6,3,8,Orig,3,0,8,2,2530,6,6_6_con.wav,6,37,1,3,37,female,1954,KoreanPoliteness_F0_KOR_KU,1,22,1,11/23/15,female,2,1,BlockProc,SpeakerBlocks,6,1,1,6,4,8,Hi,5,1,8,8,1431,1,16Perc_HiF0_6_1_con.wav,6,1,1,4,1,female,2265,KoreanPoliteness_F0_KOR_KU,1,22,1,11/23/15,female,2,1,BlockProc,SpeakerBlocks,6,1,1,6,5,8,Hi,5,1,8,8,1860,4,16Perc_HiF0_6_4_con.wav,6,3,1,5,3,female,2206,KoreanPoliteness_F0_KOR_KU,1,22,1,11/23/15,female,2,1,BlockProc,SpeakerBlocks,6,1,1,6,6,8,MidHi,4,0,8,2,399,5,08Perc_HiF0_6_5_con.wav,6,12,1,6,12,female,2147,KoreanPoliteness_F0_KOR_KU,1,22,1,11/23/15,female,2,1,BlockProc,SpeakerBlocks,6,1,1,6,7,8,MidLo,2,1,8,8,1831,1,08Perc_LoF0_6_1_con.wav,6,17,1,7,17,female,1798,KoreanPoliteness_F0_KOR_KU,1,22,1,11/23/15,female,2,1,BlockProc,SpeakerBlocks,6,1,1,6,8,8,Orig,3,1,8,8,1268,1,6_1_con.wav,6,33,1,8,33,female,1959,KoreanPoliteness_F0_KOR_KU,1,22,1,11/23/15,female,2,1,BlockProc,SpeakerBlocks,6,1,1,6,9,8,Orig,3,0,8,2,1389,5,6_5_con.wav,6,36,1,9,36,female,19810,KoreanPoliteness_F0_KOR_KU,1,22,1,11/23/15,female,2,1,BlockProc,SpeakerBlocks,6,1,1,6,10,8,MidLo,2,1,8,8,433,4,08Perc_LoF0_6_4_con.wav,6,19,1,10,19,female,17411,KoreanPoliteness_F0_KOR_KU,1,22,1,11/23/15,female,2,1,BlockProc,SpeakerBlocks,6,1,1,6,11,8,MidLo,2,0,8,2,680,5,08Perc_LoF0_6_5_con.wav,6,20,1,11,20,female,18212,KoreanPoliteness_F0_KOR_KU,1,22,1,11/23/15,female,2,1,BlockProc,SpeakerBlocks,6,1,1,6,12,8,MidHi,4,0,8,2,347,10,08Perc_HiF0_6_10_con.wav,6,16,1,12,16,female,20913,KoreanPoliteness_F0_KOR_KU,1,22,1,11/23/15,female,2,1,BlockProc,SpeakerBlocks,6,1,1,6,13,8,MidHi,4,1,8,8,549,2,08Perc_HiF0_6_2_con.wav,6,10,1,13,10,female,20414,KoreanPoliteness_F0_KOR_KU,1,22,1,11/23/15,female,2,1,BlockProc,SpeakerBlocks,6,1,1,6,14,8,MidHi,4,1,8,8,855,7,08Perc_HiF0_6_7_con.wav,6,14,1,14,14,female,20015,KoreanPoliteness_F0_KOR_KU,1,22,1,11/23/15,female,2,1,BlockProc,SpeakerBlocks,6,1,1,6,15,8,MidHi,4,1,8,8,1106,1,08Perc_HiF0_6_1_con.wav,6,9,1,15,9,female,21116,KoreanPoliteness_F0_KOR_KU,1,22,1,11/23/15,female,2,1,BlockProc,SpeakerBlocks,6,1,1,6,16,8,Hi,5,1,8,8,1012,2,16Perc_HiF0_6_2_con.wav,6,2,1,16,2,female,21917,KoreanPoliteness_F0_KOR_KU,1,22,1,11/23/15,female,2,1,BlockProc,SpeakerBlocks,6,1,1,6,17,8,Hi,5,1,8,8,1409,9,16Perc_HiF0_6_9_con.wav,6,7,1,17,7,female,22018,KoreanPoliteness_F0_KOR_KU,1,22,1,11/23/15,female,2,1,BlockProc,SpeakerBlocks,6,1,1,6,18,8,MidHi,4,1,8,8,1222,9,08Perc_HiF0_6_9_con.wav,6,15,1,18,15,female,20519,KoreanPoliteness_F0_KOR_KU,1,22,1,11/23/15,female,2,1,BlockProc,SpeakerBlocks,6,1,1,6,19,8,Orig,3,0,8,2,553,10,6_10_con.wav,6,40,1,19,40,female,19320,KoreanPoliteness_F0_KOR_KU,1,22,1,11/23/15,female,2,1,BlockProc,SpeakerBlocks,6,1,1,6,20,8,Lo,1,1,8,8,834,5,16Perc_LoF0_6_5_con.wav,6,28,1,20,28,female,16621,KoreanPoliteness_F0_KOR_KU,1,22,1,11/23/15,female,2,1,BlockProc,SpeakerBlocks,6,1,1,6,21,8,Hi,5,0,8,2,1637,7,16Perc_HiF0_6_7_con.wav,6,6,1,21,6,female,21522,KoreanPoliteness_F0_KOR_KU,1,22,1,11/23/15,female,2,1,BlockProc,SpeakerBlocks,6,1,1,6,22,8,MidLo,2,0,8,2,523,6,08Perc_LoF0_6_6_con.wav,6,21,1,22,21,female,18023,KoreanPoliteness_F0_KOR_KU,1,22,1,11/23/15,female,2,1,BlockProc,SpeakerBlocks,6,1,1,6,23,8,Hi,5,0,8,2,332,10,16Perc_HiF0_6_10_con.wav,6,8,1,23,8,female,22424,KoreanPoliteness_F0_KOR_KU,1,22,1,11/23/15,female,2,1,BlockProc,SpeakerBlocks,6,1,1,6,24,8,Orig,3,1,8,8,487,9,6_9_con.wav,6,39,1,24,39,female,19025,KoreanPoliteness_F0_KOR_KU,1,22,1,11/23/15,female,2,1,BlockProc,SpeakerBlocks,6,1,1,6,25,8,Orig,3,1,8,8,298,4,6_4_con.wav,6,35,1,25,35,female,18926,KoreanPoliteness_F0_KOR_KU,1,22,1,11/23/15,female,2,1,BlockProc,SpeakerBlocks,6,1,1,6,26,8,Lo,1,1,8,8,441,4,16Perc_LoF0_6_4_con.wav,6,27,1,26,27,female,15927,KoreanPoliteness_F0_KOR_KU,1,22,1,11/23/15,female,2,1,BlockProc,SpeakerBlocks,6,1,1,6,27,8,Hi,5,0,8,2,1780,6,16Perc_HiF0_6_6_con.wav,6,5,1,27,5,female,22728,KoreanPoliteness_F0_KOR_KU,1,22,1,11/23/15,female,2,1,BlockProc,SpeakerBlocks,6,1,1,6,28,8,Lo,1,0,8,2,338,10,16Perc_LoF0_6_10_con.wav,6,32,1,28,32,female,16229,KoreanPoliteness_F0_KOR_KU,1,22,1,11/23/15,female,2,1,BlockProc,SpeakerBlocks,6,1,1,6,29,8,MidLo,2,0,8,2,346,10,08Perc_LoF0_6_10_con.wav,6,24,1,29,24,female,17830,KoreanPoliteness_F0_KOR_KU,1,22,1,11/23/15,female,2,1,BlockProc,SpeakerBlocks,6,1,1,6,30,8,MidLo,2,1,8,8,1388,7,08Perc_LoF0_6_7_con.wav,6,22,1,30,22,female,17131,KoreanPoliteness_F0_KOR_KU,1,22,1,11/23/15,female,2,1,BlockProc,SpeakerBlocks,6,1,1,6,31,8,Orig,3,1,8,8,406,7,6_7_con.wav,6,38,1,31,38,female,18632,KoreanPoliteness_F0_KOR_KU,1,22,1,11/23/15,female,2,1,BlockProc,SpeakerBlocks,6,1,1,6,32,8,Lo,1,1,8,8,560,7,16Perc_LoF0_6_7_con.wav,6,30,1,32,30,female,15533,KoreanPoliteness_F0_KOR_KU,1,22,1,11/23/15,female,2,1,BlockProc,SpeakerBlocks,6,1,1,6,33,8,Lo,1,0,8,2,573,6,16Perc_LoF0_6_6_con.wav,6,29,1,33,29,female,16434,KoreanPoliteness_F0_KOR_KU,1,22,1,11/23/15,female,2,1,BlockProc,SpeakerBlocks,6,1,1,6,34,8,Lo,1,1,8,8,1151,1,16Perc_LoF0_6_1_con.wav,6,25,1,34,25,female,16435,KoreanPoliteness_F0_KOR_KU,1,22,1,11/23/15,female,2,1,BlockProc,SpeakerBlocks,6,1,1,6,35,8,Lo,1,1,8,8,634,9,16Perc_LoF0_6_9_con.wav,6,31,1,35,31,female,15936,KoreanPoliteness_F0_KOR_KU,1,22,1,11/23/15,female,2,1,BlockProc,SpeakerBlocks,6,1,1,6,36,8,Lo,1,1,8,8,1028,2,16Perc_LoF0_6_2_con.wav,6,26,1,36,26,female,15837,KoreanPoliteness_F0_KOR_KU,1,22,1,11/23/15,female,2,1,BlockProc,SpeakerBlocks,6,1,1,6,37,8,MidLo,2,1,8,8,1615,9,08Perc_LoF0_6_9_con.wav,6,23,1,37,23,female,17438,KoreanPoliteness_F0_KOR_KU,1,22,1,11/23/15,female,2,1,BlockProc,SpeakerBlocks,6,1,1,6,38,8,MidHi,4,1,8,8,592,4,08Perc_HiF0_6_4_con.wav,6,11,1,38,11,female,20539,KoreanPoliteness_F0_KOR_KU,1,22,1,11/23/15,female,2,1,BlockProc,SpeakerBlocks,6,1,1,6,39,8,MidLo,2,1,8,8,836,2,08Perc_LoF0_6_2_con.wav,6,18,1,39,18,female,17440,KoreanPoliteness_F0_KOR_KU,1,22,1,11/23/15,female,2,1,BlockProc,SpeakerBlocks,6,1,1,6,40,8,Hi,5,0,8,2,1348,5,16Perc_HiF0_6_5_con.wav,6,4,1,40,4,female,22941,KoreanPoliteness_F0_KOR_KU,1,22,1,11/23/15,female,2,2,BlockProc,SpeakerBlocks,7,1,2,7,1,8,Hi,5,0,8,2,632,2,16Perc_HiF0_7_2_con.wav,7,2,2,41,2,male,13442,KoreanPoliteness_F0_KOR_KU,1,22,1,11/23/15,female,2,2,BlockProc,SpeakerBlocks,7,1,2,7,2,8,MidHi,4,0,8,2,340,7,08Perc_HiF0_7_7_con.wav,7,14,2,42,14,male,12943,KoreanPoliteness_F0_KOR_KU,1,22,1,11/23/15,female,2,2,BlockProc,SpeakerBlocks,7,1,2,7,3,8,Orig,3,0,8,2,368,1,7_1_con.wav,7,33,2,43,33,male,11344,KoreanPoliteness_F0_KOR_KU,1,22,1,11/23/15,female,2,2,BlockProc,SpeakerBlocks,7,1,2,7,4,8,Lo,1,0,8,2,1232,5,16Perc_LoF0_7_5_con.wav,7,28,2,44,28,male,9145,KoreanPoliteness_F0_KOR_KU,1,22,1,11/23/15,female,2,2,BlockProc,SpeakerBlocks,7,1,2,7,5,8,Lo,1,0,8,2,989,6,16Perc_LoF0_7_6_con.wav,7,29,2,45,29,male,9146,KoreanPoliteness_F0_KOR_KU,1,22,1,11/23/15,female,2,2,BlockProc,SpeakerBlocks,7,1,2,7,6,8,MidLo,2,0,8,2,1188,7,08Perc_LoF0_7_7_con.wav,7,22,2,46,22,male,10947,KoreanPoliteness_F0_KOR_KU,1,22,1,11/23/15,female,2,2,BlockProc,SpeakerBlocks,7,1,2,7,7,8,Hi,5,0,8,2,543,1,16Perc_HiF0_7_1_con.wav,7,1,2,47,1,male,13148,KoreanPoliteness_F0_KOR_KU,1,22,1,11/23/15,female,2,2,BlockProc,SpeakerBlocks,7,1,2,7,8,8,Lo,1,0,8,2,687,9,16Perc_LoF0_7_9_con.wav,7,31,2,48,31,male,9549,KoreanPoliteness_F0_KOR_KU,1,22,1,11/23/15,female,2,2,BlockProc,SpeakerBlocks,7,1,2,7,9,8,Lo,1,0,8,2,712,2,16Perc_LoF0_7_2_con.wav,7,26,2,49,26,male,9750,KoreanPoliteness_F0_KOR_KU,1,22,1,11/23/15,female,2,2,BlockProc,SpeakerBlocks,7,1,2,7,10,8,MidLo,2,0,8,2,641,5,08Perc_LoF0_7_5_con.wav,7,20,2,50,20,male,9951,KoreanPoliteness_F0_KOR_KU,1,22,1,11/23/15,female,2,2,BlockProc,SpeakerBlocks,7,1,2,7,11,8,Orig,3,0,8,2,672,9,7_9_con.wav,7,39,2,51,39,male,11352,KoreanPoliteness_F0_KOR_KU,1,22,1,11/23/15,female,2,2,BlockProc,SpeakerBlocks,7,1,2,7,12,8,Hi,5,0,8,2,2415,9,16Perc_HiF0_7_9_con.wav,7,7,2,52,7,male,13153,KoreanPoliteness_F0_KOR_KU,1,22,1,11/23/15,female,2,2,BlockProc,SpeakerBlocks,7,1,2,7,13,8,Hi,5,0,8,2,550,7,16Perc_HiF0_7_7_con.wav,7,6,2,53,6,male,13854,KoreanPoliteness_F0_KOR_KU,1,22,1,11/23/15,female,2,2,BlockProc,SpeakerBlocks,7,1,2,7,14,8,MidLo,2,0,8,2,561,6,08Perc_LoF0_7_6_con.wav,7,21,2,54,21,male,9955,KoreanPoliteness_F0_KOR_KU,1,22,1,11/23/15,female,2,2,BlockProc,SpeakerBlocks,7,1,2,7,15,8,Orig,3,0,8,2,863,4,7_4_con.wav,7,35,2,55,35,male,11256,KoreanPoliteness_F0_KOR_KU,1,22,1,11/23/15,female,2,2,BlockProc,SpeakerBlocks,7,1,2,7,16,8,Orig,3,0,8,2,1284,10,7_10_con.wav,7,40,2,56,40,male,11057,KoreanPoliteness_F0_KOR_KU,1,22,1,11/23/15,female,2,2,BlockProc,SpeakerBlocks,7,1,2,7,17,8,MidLo,2,0,8,2,744,9,08Perc_LoF0_7_9_con.wav,7,23,2,57,23,male,10458,KoreanPoliteness_F0_KOR_KU,1,22,1,11/23/15,female,2,2,BlockProc,SpeakerBlocks,7,1,2,7,18,8,Hi,5,0,8,2,2419,4,16Perc_HiF0_7_4_con.wav,7,3,2,58,3,male,13559,KoreanPoliteness_F0_KOR_KU,1,22,1,11/23/15,female,2,2,BlockProc,SpeakerBlocks,7,1,2,7,19,8,MidHi,4,0,8,2,973,10,08Perc_HiF0_7_10_con.wav,7,16,2,59,16,male,11960,KoreanPoliteness_F0_KOR_KU,1,22,1,11/23/15,female,2,2,BlockProc,SpeakerBlocks,7,1,2,7,20,8,Orig,3,0,8,2,679,7,7_7_con.wav,7,38,2,60,38,male,11961,KoreanPoliteness_F0_KOR_KU,1,22,1,11/23/15,female,2,2,BlockProc,SpeakerBlocks,7,1,2,7,21,8,Orig,3,0,8,2,1008,5,7_5_con.wav,7,36,2,61,36,male,10862,KoreanPoliteness_F0_KOR_KU,1,22,1,11/23/15,female,2,2,BlockProc,SpeakerBlocks,7,1,2,7,22,8,Lo,1,0,8,2,999,1,16Perc_LoF0_7_1_con.wav,7,25,2,62,25,male,9563,KoreanPoliteness_F0_KOR_KU,1,22,1,11/23/15,female,2,2,BlockProc,SpeakerBlocks,7,1,2,7,23,8,Hi,5,0,8,2,585,10,16Perc_HiF0_7_10_con.wav,7,8,2,63,8,male,12864,KoreanPoliteness_F0_KOR_KU,1,22,1,11/23/15,female,2,2,BlockProc,SpeakerBlocks,7,1,2,7,24,8,Orig,3,0,8,2,896,6,7_6_con.wav,7,37,2,64,37,male,10765,KoreanPoliteness_F0_KOR_KU,1,22,1,11/23/15,female,2,2,BlockProc,SpeakerBlocks,7,1,2,7,25,8,Hi,5,1,8,8,959,5,16Perc_HiF0_7_5_con.wav,7,4,2,65,4,male,12566,KoreanPoliteness_F0_KOR_KU,1,22,1,11/23/15,female,2,2,BlockProc,SpeakerBlocks,7,1,2,7,26,8,Lo,1,0,8,2,566,10,16Perc_LoF0_7_10_con.wav,7,32,2,66,32,male,9267,KoreanPoliteness_F0_KOR_KU,1,22,1,11/23/15,female,2,2,BlockProc,SpeakerBlocks,7,1,2,7,27,8,MidHi,4,1,8,8,903,6,08Perc_HiF0_7_6_con.wav,7,13,2,67,13,male,11668,KoreanPoliteness_F0_KOR_KU,1,22,1,11/23/15,female,2,2,BlockProc,SpeakerBlocks,7,1,2,7,28,8,Hi,5,1,8,8,524,6,16Perc_HiF0_7_6_con.wav,7,5,2,68,5,male,12469,KoreanPoliteness_F0_KOR_KU,1,22,1,11/23/15,female,2,2,BlockProc,SpeakerBlocks,7,1,2,7,29,8,MidHi,4,1,8,8,1679,1,08Perc_HiF0_7_1_con.wav,7,9,2,69,9,male,12270,KoreanPoliteness_F0_KOR_KU,1,22,1,11/23/15,female,2,2,BlockProc,SpeakerBlocks,7,1,2,7,30,8,MidHi,4,1,8,8,583,2,08Perc_HiF0_7_2_con.wav,7,10,2,70,10,male,12471,KoreanPoliteness_F0_KOR_KU,1,22,1,11/23/15,female,2,2,BlockProc,SpeakerBlocks,7,1,2,7,31,8,MidLo,2,0,8,2,1889,2,08Perc_LoF0_7_2_con.wav,7,18,2,71,18,male,10672,KoreanPoliteness_F0_KOR_KU,1,22,1,11/23/15,female,2,2,BlockProc,SpeakerBlocks,7,1,2,7,32,8,Orig,3,0,8,2,617,2,7_2_con.wav,7,34,2,72,34,male,11573,KoreanPoliteness_F0_KOR_KU,1,22,1,11/23/15,female,2,2,BlockProc,SpeakerBlocks,7,1,2,7,33,8,Lo,1,0,8,2,1393,7,16Perc_LoF0_7_7_con.wav,7,30,2,73,30,male,10074,KoreanPoliteness_F0_KOR_KU,1,22,1,11/23/15,female,2,2,BlockProc,SpeakerBlocks,7,1,2,7,34,8,Lo,1,0,8,2,1240,4,16Perc_LoF0_7_4_con.wav,7,27,2,74,27,male,9875,KoreanPoliteness_F0_KOR_KU,1,22,1,11/23/15,female,2,2,BlockProc,SpeakerBlocks,7,1,2,7,35,8,MidLo,2,0,8,2,524,1,08Perc_LoF0_7_1_con.wav,7,17,2,75,17,male,10376,KoreanPoliteness_F0_KOR_KU,1,22,1,11/23/15,female,2,2,BlockProc,SpeakerBlocks,7,1,2,7,36,8,MidHi,4,1,8,8,807,4,08Perc_HiF0_7_4_con.wav,7,11,2,76,11,male,12377,KoreanPoliteness_F0_KOR_KU,1,22,1,11/23/15,female,2,2,BlockProc,SpeakerBlocks,7,1,2,7,37,8,MidHi,4,1,8,8,779,5,08Perc_HiF0_7_5_con.wav,7,12,2,77,12,male,11678,KoreanPoliteness_F0_KOR_KU,1,22,1,11/23/15,female,2,2,BlockProc,SpeakerBlocks,7,1,2,7,38,8,MidHi,4,0,8,2,1350,9,08Perc_HiF0_7_9_con.wav,7,15,2,78,15,male,12279,KoreanPoliteness_F0_KOR_KU,1,22,1,11/23/15,female,2,2,BlockProc,SpeakerBlocks,7,1,2,7,39,8,MidLo,2,1,8,8,1635,10,08Perc_LoF0_7_10_con.wav,7,24,2,79,24,male,10180,KoreanPoliteness_F0_KOR_KU,1,22,1,11/23/15,female,2,2,BlockProc,SpeakerBlocks,7,1,2,7,40,8,MidLo,2,1,8,8,1263,4,08Perc_LoF0_7_4_con.wav,7,19,2,80,19,male,10781,KoreanPoliteness_F0_KOR_KU,1,22,1,11/23/15,female,2,3,BlockProc,SpeakerBlocks,2,1,3,2,1,8,Hi,5,1,8,8,1616,9,16Perc_HiF0_2_9_con.wav,2,7,3,81,7,female,21382,KoreanPoliteness_F0_KOR_KU,1,22,1,11/23/15,female,2,3,BlockProc,SpeakerBlocks,2,1,3,2,2,8,Hi,5,1,8,8,2653,2,16Perc_HiF0_2_2_con.wav,2,2,3,82,2,female,23183,KoreanPoliteness_F0_KOR_KU,1,22,1,11/23/15,female,2,3,BlockProc,SpeakerBlocks,2,1,3,2,3,8,MidLo,2,1,8,8,1506,9,08Perc_LoF0_2_9_con.wav,2,23,3,83,23,female,18184,KoreanPoliteness_F0_KOR_KU,1,22,1,11/23/15,female,2,3,BlockProc,SpeakerBlocks,2,1,3,2,4,8,Lo,1,1,8,8,1782,9,16Perc_LoF0_2_9_con.wav,2,31,3,84,31,female,16185,KoreanPoliteness_F0_KOR_KU,1,22,1,11/23/15,female,2,3,BlockProc,SpeakerBlocks,2,1,3,2,5,8,Orig,3,1,8,8,717,5,2_5_con.wav,2,36,3,85,36,female,18886,KoreanPoliteness_F0_KOR_KU,1,22,1,11/23/15,female,2,3,BlockProc,SpeakerBlocks,2,1,3,2,6,8,Lo,1,1,8,8,1053,4,16Perc_LoF0_2_4_con.wav,2,27,3,86,27,female,16787,KoreanPoliteness_F0_KOR_KU,1,22,1,11/23/15,female,2,3,BlockProc,SpeakerBlocks,2,1,3,2,7,8,Lo,1,1,8,8,1565,7,16Perc_LoF0_2_7_con.wav,2,30,3,87,30,female,15888,KoreanPoliteness_F0_KOR_KU,1,22,1,11/23/15,female,2,3,BlockProc,SpeakerBlocks,2,1,3,2,8,8,MidHi,4,1,8,8,1576,5,08Perc_HiF0_2_5_con.wav,2,12,3,88,12,female,20589,KoreanPoliteness_F0_KOR_KU,1,22,1,11/23/15,female,2,3,BlockProc,SpeakerBlocks,2,1,3,2,9,8,MidHi,4,1,8,8,1411,2,08Perc_HiF0_2_2_con.wav,2,10,3,89,10,female,21990,KoreanPoliteness_F0_KOR_KU,1,22,1,11/23/15,female,2,3,BlockProc,SpeakerBlocks,2,1,3,2,10,8,Orig,3,1,8,8,1979,2,2_2_con.wav,2,34,3,90,34,female,20491,KoreanPoliteness_F0_KOR_KU,1,22,1,11/23/15,female,2,3,BlockProc,SpeakerBlocks,2,1,3,2,11,8,MidLo,2,1,8,8,787,6,08Perc_LoF0_2_6_con.wav,2,21,3,91,21,female,18392,KoreanPoliteness_F0_KOR_KU,1,22,1,11/23/15,female,2,3,BlockProc,SpeakerBlocks,2,1,3,2,12,8,MidHi,4,1,8,8,963,7,08Perc_HiF0_2_7_con.wav,2,14,3,92,14,female,20393,KoreanPoliteness_F0_KOR_KU,1,22,1,11/23/15,female,2,3,BlockProc,SpeakerBlocks,2,1,3,2,13,8,Hi,5,1,8,8,965,5,16Perc_HiF0_2_5_con.wav,2,4,3,93,4,female,22094,KoreanPoliteness_F0_KOR_KU,1,22,1,11/23/15,female,2,3,BlockProc,SpeakerBlocks,2,1,3,2,14,8,Lo,1,1,8,8,1449,5,16Perc_LoF0_2_5_con.wav,2,28,3,94,28,female,15995,KoreanPoliteness_F0_KOR_KU,1,22,1,11/23/15,female,2,3,BlockProc,SpeakerBlocks,2,1,3,2,15,8,Orig,3,1,8,8,2132,10,2_10_con.wav,2,40,3,95,40,female,19496,KoreanPoliteness_F0_KOR_KU,1,22,1,11/23/15,female,2,3,BlockProc,SpeakerBlocks,2,1,3,2,16,8,Lo,1,1,8,8,769,1,16Perc_LoF0_2_1_con.wav,2,25,3,96,25,female,18697,KoreanPoliteness_F0_KOR_KU,1,22,1,11/23/15,female,2,3,BlockProc,SpeakerBlocks,2,1,3,2,17,8,Hi,5,1,8,8,1354,4,16Perc_HiF0_2_4_con.wav,2,3,3,97,3,female,23198,KoreanPoliteness_F0_KOR_KU,1,22,1,11/23/15,female,2,3,BlockProc,SpeakerBlocks,2,1,3,2,18,8,MidHi,4,1,8,8,1231,4,08Perc_HiF0_2_4_con.wav,2,11,3,98,11,female,21599,KoreanPoliteness_F0_KOR_KU,1,22,1,11/23/15,female,2,3,BlockProc,SpeakerBlocks,2,1,3,2,19,8,Hi,5,1,8,8,730,6,16Perc_HiF0_2_6_con.wav,2,5,3,99,5,female,231100,KoreanPoliteness_F0_KOR_KU,1,22,1,11/23/15,female,2,3,BlockProc,SpeakerBlocks,2,1,3,2,20,8,MidHi,4,1,8,8,795,6,08Perc_HiF0_2_6_con.wav,2,13,3,100,13,female,214101,KoreanPoliteness_F0_KOR_KU,1,22,1,11/23/15,female,2,3,BlockProc,SpeakerBlocks,2,1,3,2,21,8,Orig,3,1,8,8,1731,6,2_6_con.wav,2,37,3,101,37,female,196102,KoreanPoliteness_F0_KOR_KU,1,22,1,11/23/15,female,2,3,BlockProc,SpeakerBlocks,2,1,3,2,22,8,MidLo,2,1,8,8,753,5,08Perc_LoF0_2_5_con.wav,2,20,3,102,20,female,174103,KoreanPoliteness_F0_KOR_KU,1,22,1,11/23/15,female,2,3,BlockProc,SpeakerBlocks,2,1,3,2,23,8,MidLo,2,1,8,8,662,1,08Perc_LoF0_2_1_con.wav,2,17,3,103,17,female,205104,KoreanPoliteness_F0_KOR_KU,1,22,1,11/23/15,female,2,3,BlockProc,SpeakerBlocks,2,1,3,2,24,8,Lo,1,1,8,8,912,6,16Perc_LoF0_2_6_con.wav,2,29,3,104,29,female,166105,KoreanPoliteness_F0_KOR_KU,1,22,1,11/23/15,female,2,3,BlockProc,SpeakerBlocks,2,1,3,2,25,8,MidHi,4,1,8,8,474,1,08Perc_HiF0_2_1_con.wav,2,9,3,105,9,female,239106,KoreanPoliteness_F0_KOR_KU,1,22,1,11/23/15,female,2,3,BlockProc,SpeakerBlocks,2,1,3,2,26,8,Orig,3,1,8,8,640,1,2_1_con.wav,2,33,3,106,33,female,221107,KoreanPoliteness_F0_KOR_KU,1,22,1,11/23/15,female,2,3,BlockProc,SpeakerBlocks,2,1,3,2,27,8,Lo,1,0,8,2,2047,2,16Perc_LoF0_2_2_con.wav,2,26,3,107,26,female,167108,KoreanPoliteness_F0_KOR_KU,1,22,1,11/23/15,female,2,3,BlockProc,SpeakerBlocks,2,1,3,2,28,8,MidLo,2,1,8,8,726,10,08Perc_LoF0_2_10_con.wav,2,24,3,108,24,female,178109,KoreanPoliteness_F0_KOR_KU,1,22,1,11/23/15,female,2,3,BlockProc,SpeakerBlocks,2,1,3,2,29,8,MidHi,4,1,8,8,1516,9,08Perc_HiF0_2_9_con.wav,2,15,3,109,15,female,198110,KoreanPoliteness_F0_KOR_KU,1,22,1,11/23/15,female,2,3,BlockProc,SpeakerBlocks,2,1,3,2,30,8,Lo,1,0,8,2,1153,10,16Perc_LoF0_2_10_con.wav,2,32,3,110,32,female,163111,KoreanPoliteness_F0_KOR_KU,1,22,1,11/23/15,female,2,3,BlockProc,SpeakerBlocks,2,1,3,2,31,8,MidLo,2,1,8,8,1774,2,08Perc_LoF0_2_2_con.wav,2,18,3,111,18,female,183112,KoreanPoliteness_F0_KOR_KU,1,22,1,11/23/15,female,2,3,BlockProc,SpeakerBlocks,2,1,3,2,32,8,Hi,5,1,8,8,387,10,16Perc_HiF0_2_10_con.wav,2,8,3,112,8,female,224113,KoreanPoliteness_F0_KOR_KU,1,22,1,11/23/15,female,2,3,BlockProc,SpeakerBlocks,2,1,3,2,33,8,Orig,3,1,8,8,713,9,2_9_con.wav,2,39,3,113,39,female,182114,KoreanPoliteness_F0_KOR_KU,1,22,1,11/23/15,female,2,3,BlockProc,SpeakerBlocks,2,1,3,2,34,8,MidLo,2,1,8,8,556,7,08Perc_LoF0_2_7_con.wav,2,22,3,114,22,female,173115,KoreanPoliteness_F0_KOR_KU,1,22,1,11/23/15,female,2,3,BlockProc,SpeakerBlocks,2,1,3,2,35,8,Hi,5,1,8,8,400,7,16Perc_HiF0_2_7_con.wav,2,6,3,115,6,female,218116,KoreanPoliteness_F0_KOR_KU,1,22,1,11/23/15,female,2,3,BlockProc,SpeakerBlocks,2,1,3,2,36,8,Orig,3,1,8,8,971,4,2_4_con.wav,2,35,3,116,35,female,199117,KoreanPoliteness_F0_KOR_KU,1,22,1,11/23/15,female,2,3,BlockProc,SpeakerBlocks,2,1,3,2,37,8,Orig,3,1,8,8,462,7,2_7_con.wav,2,38,3,117,38,female,188118,KoreanPoliteness_F0_KOR_KU,1,22,1,11/23/15,female,2,3,BlockProc,SpeakerBlocks,2,1,3,2,38,8,Hi,5,1,8,8,416,1,16Perc_HiF0_2_1_con.wav,2,1,3,118,1,female,257119,KoreanPoliteness_F0_KOR_KU,1,22,1,11/23/15,female,2,3,BlockProc,SpeakerBlocks,2,1,3,2,39,8,MidHi,4,1,8,8,1223,10,08Perc_HiF0_2_10_con.wav,2,16,3,119,16,female,209120,KoreanPoliteness_F0_KOR_KU,1,22,1,11/23/15,female,2,3,BlockProc,SpeakerBlocks,2,1,3,2,40,8,MidLo,2,1,8,8,1502,4,08Perc_LoF0_2_4_con.wav,2,19,3,120,19,female,183121,KoreanPoliteness_F0_KOR_KU,1,22,1,11/23/15,female,2,4,BlockProc,SpeakerBlocks,3,1,4,3,1,8,Orig,3,1,8,8,765,9,3_9_con.wav,3,39,4,121,39,male,100122,KoreanPoliteness_F0_KOR_KU,1,22,1,11/23/15,female,2,4,BlockProc,SpeakerBlocks,3,1,4,3,2,8,Lo,1,1,8,8,912,4,16Perc_LoF0_3_4_con.wav,3,27,4,122,27,male,88123,KoreanPoliteness_F0_KOR_KU,1,22,1,11/23/15,female,2,4,BlockProc,SpeakerBlocks,3,1,4,3,3,8,Lo,1,1,8,8,769,9,16Perc_LoF0_3_9_con.wav,3,31,4,123,31,male,85124,KoreanPoliteness_F0_KOR_KU,1,22,1,11/23/15,female,2,4,BlockProc,SpeakerBlocks,3,1,4,3,4,8,MidLo,2,1,8,8,1420,10,08Perc_LoF0_3_10_con.wav,3,24,4,124,24,male,90125,KoreanPoliteness_F0_KOR_KU,1,22,1,11/23/15,female,2,4,BlockProc,SpeakerBlocks,3,1,4,3,5,8,Lo,1,0,8,2,2103,5,16Perc_LoF0_3_5_con.wav,3,28,4,125,28,male,78126,KoreanPoliteness_F0_KOR_KU,1,22,1,11/23/15,female,2,4,BlockProc,SpeakerBlocks,3,1,4,3,6,8,Hi,5,0,8,2,2280,5,16Perc_HiF0_3_5_con.wav,3,4,4,126,4,male,107127,KoreanPoliteness_F0_KOR_KU,1,22,1,11/23/15,female,2,4,BlockProc,SpeakerBlocks,3,1,4,3,7,8,Orig,3,1,8,8,492,10,3_10_con.wav,3,40,4,127,40,male,98128,KoreanPoliteness_F0_KOR_KU,1,22,1,11/23/15,female,2,4,BlockProc,SpeakerBlocks,3,1,4,3,8,8,Lo,1,0,8,2,704,1,16Perc_LoF0_3_1_con.wav,3,25,4,128,25,male,87129,KoreanPoliteness_F0_KOR_KU,1,22,1,11/23/15,female,2,4,BlockProc,SpeakerBlocks,3,1,4,3,9,8,MidLo,2,0,8,2,1268,1,08Perc_LoF0_3_1_con.wav,3,17,4,129,17,male,94130,KoreanPoliteness_F0_KOR_KU,1,22,1,11/23/15,female,2,4,BlockProc,SpeakerBlocks,3,1,4,3,10,8,Hi,5,1,8,8,348,2,16Perc_HiF0_3_2_con.wav,3,2,4,130,2,male,110131,KoreanPoliteness_F0_KOR_KU,1,22,1,11/23/15,female,2,4,BlockProc,SpeakerBlocks,3,1,4,3,11,8,Hi,5,1,8,8,446,10,16Perc_HiF0_3_10_con.wav,3,8,4,131,8,male,114132,KoreanPoliteness_F0_KOR_KU,1,22,1,11/23/15,female,2,4,BlockProc,SpeakerBlocks,3,1,4,3,12,8,Lo,1,1,8,8,1604,6,16Perc_LoF0_3_6_con.wav,3,29,4,132,29,male,87133,KoreanPoliteness_F0_KOR_KU,1,22,1,11/23/15,female,2,4,BlockProc,SpeakerBlocks,3,1,4,3,13,8,MidHi,4,1,8,8,308,9,08Perc_HiF0_3_9_con.wav,3,15,4,133,15,male,109134,KoreanPoliteness_F0_KOR_KU,1,22,1,11/23/15,female,2,4,BlockProc,SpeakerBlocks,3,1,4,3,14,8,MidHi,4,1,8,8,460,4,08Perc_HiF0_3_4_con.wav,3,11,4,134,11,male,113135,KoreanPoliteness_F0_KOR_KU,1,22,1,11/23/15,female,2,4,BlockProc,SpeakerBlocks,3,1,4,3,15,8,MidHi,4,1,8,8,601,10,08Perc_HiF0_3_10_con.wav,3,16,4,135,16,male,106136,KoreanPoliteness_F0_KOR_KU,1,22,1,11/23/15,female,2,4,BlockProc,SpeakerBlocks,3,1,4,3,16,8,MidHi,4,0,8,2,636,5,08Perc_HiF0_3_5_con.wav,3,12,4,136,12,male,100137,KoreanPoliteness_F0_KOR_KU,1,22,1,11/23/15,female,2,4,BlockProc,SpeakerBlocks,3,1,4,3,17,8,Hi,5,1,8,8,537,7,16Perc_HiF0_3_7_con.wav,3,6,4,137,6,male,116138,KoreanPoliteness_F0_KOR_KU,1,22,1,11/23/15,female,2,4,BlockProc,SpeakerBlocks,3,1,4,3,18,8,MidLo,2,1,8,8,2110,4,08Perc_LoF0_3_4_con.wav,3,19,4,138,19,male,96139,KoreanPoliteness_F0_KOR_KU,1,22,1,11/23/15,female,2,4,BlockProc,SpeakerBlocks,3,1,4,3,19,8,Lo,1,1,8,8,475,7,16Perc_LoF0_3_7_con.wav,3,30,4,139,30,male,84140,KoreanPoliteness_F0_KOR_KU,1,22,1,11/23/15,female,2,4,BlockProc,SpeakerBlocks,3,1,4,3,20,8,Hi,5,1,8,8,2157,1,16Perc_HiF0_3_1_con.wav,3,1,4,140,1,male,119141,KoreanPoliteness_F0_KOR_KU,1,22,1,11/23/15,female,2,4,BlockProc,SpeakerBlocks,3,1,4,3,21,8,MidLo,2,1,8,8,1801,2,08Perc_LoF0_3_2_con.wav,3,18,4,141,18,male,87142,KoreanPoliteness_F0_KOR_KU,1,22,1,11/23/15,female,2,4,BlockProc,SpeakerBlocks,3,1,4,3,22,8,Lo,1,1,8,8,581,10,16Perc_LoF0_3_10_con.wav,3,32,4,142,32,male,83143,KoreanPoliteness_F0_KOR_KU,1,22,1,11/23/15,female,2,4,BlockProc,SpeakerBlocks,3,1,4,3,23,8,MidLo,2,1,8,8,557,6,08Perc_LoF0_3_6_con.wav,3,21,4,143,21,male,95144,KoreanPoliteness_F0_KOR_KU,1,22,1,11/23/15,female,2,4,BlockProc,SpeakerBlocks,3,1,4,3,24,8,Hi,5,0,8,,0,9,16Perc_HiF0_3_9_con.wav,3,7,4,144,7,male,116145,KoreanPoliteness_F0_KOR_KU,1,22,1,11/23/15,female,2,4,BlockProc,SpeakerBlocks,3,1,4,3,25,8,Orig,3,0,8,2,1117,5,3_5_con.wav,3,36,4,145,36,male,92146,KoreanPoliteness_F0_KOR_KU,1,22,1,11/23/15,female,2,4,BlockProc,SpeakerBlocks,3,1,4,3,26,8,MidHi,4,1,8,8,1230,1,08Perc_HiF0_3_1_con.wav,3,9,4,146,9,male,112147,KoreanPoliteness_F0_KOR_KU,1,22,1,11/23/15,female,2,4,BlockProc,SpeakerBlocks,3,1,4,3,27,8,Hi,5,1,8,8,1126,6,16Perc_HiF0_3_6_con.wav,3,5,4,147,5,male,119148,KoreanPoliteness_F0_KOR_KU,1,22,1,11/23/15,female,2,4,BlockProc,SpeakerBlocks,3,1,4,3,28,8,MidLo,2,0,8,2,318,9,08Perc_LoF0_3_9_con.wav,3,23,4,148,23,male,94149,KoreanPoliteness_F0_KOR_KU,1,22,1,11/23/15,female,2,4,BlockProc,SpeakerBlocks,3,1,4,3,29,8,MidHi,4,0,8,2,370,7,08Perc_HiF0_3_7_con.wav,3,14,4,149,14,male,108150,KoreanPoliteness_F0_KOR_KU,1,22,1,11/23/15,female,2,4,BlockProc,SpeakerBlocks,3,1,4,3,30,8,Orig,3,0,8,2,433,4,3_4_con.wav,3,35,4,150,35,male,104151,KoreanPoliteness_F0_KOR_KU,1,22,1,11/23/15,female,2,4,BlockProc,SpeakerBlocks,3,1,4,3,31,8,MidHi,4,0,8,2,284,6,08Perc_HiF0_3_6_con.wav,3,13,4,151,13,male,111152,KoreanPoliteness_F0_KOR_KU,1,22,1,11/23/15,female,2,4,BlockProc,SpeakerBlocks,3,1,4,3,32,8,Orig,3,0,8,2,275,2,3_2_con.wav,3,34,4,152,34,male,95153,KoreanPoliteness_F0_KOR_KU,1,22,1,11/23/15,female,2,4,BlockProc,SpeakerBlocks,3,1,4,3,33,8,MidLo,2,0,8,2,398,7,08Perc_LoF0_3_7_con.wav,3,22,4,153,22,male,93154,KoreanPoliteness_F0_KOR_KU,1,22,1,11/23/15,female,2,4,BlockProc,SpeakerBlocks,3,1,4,3,34,8,Orig,3,1,8,8,923,1,3_1_con.wav,3,33,4,154,33,male,103155,KoreanPoliteness_F0_KOR_KU,1,22,1,11/23/15,female,2,4,BlockProc,SpeakerBlocks,3,1,4,3,35,8,Hi,5,1,8,8,1230,4,16Perc_HiF0_3_4_con.wav,3,3,4,155,3,male,121156,KoreanPoliteness_F0_KOR_KU,1,22,1,11/23/15,female,2,4,BlockProc,SpeakerBlocks,3,1,4,3,36,8,Orig,3,1,8,8,379,7,3_7_con.wav,3,38,4,156,38,male,100157,KoreanPoliteness_F0_KOR_KU,1,22,1,11/23/15,female,2,4,BlockProc,SpeakerBlocks,3,1,4,3,37,8,MidHi,4,1,8,8,1169,2,08Perc_HiF0_3_2_con.wav,3,10,4,157,10,male,102158,KoreanPoliteness_F0_KOR_KU,1,22,1,11/23/15,female,2,4,BlockProc,SpeakerBlocks,3,1,4,3,38,8,Orig,3,1,8,8,825,6,3_6_con.wav,3,37,4,158,37,male,103159,KoreanPoliteness_F0_KOR_KU,1,22,1,11/23/15,female,2,4,BlockProc,SpeakerBlocks,3,1,4,3,39,8,Lo,1,0,8,2,429,2,16Perc_LoF0_3_2_con.wav,3,26,4,159,26,male,80160,KoreanPoliteness_F0_KOR_KU,1,22,1,11/23/15,female,2,4,BlockProc,SpeakerBlocks,3,1,4,3,40,8,MidLo,2,0,8,2,808,5,08Perc_LoF0_3_5_con.wav,3,20,4,160,20,male,86161,KoreanPoliteness_F0_KOR_KU,1,22,1,11/23/15,female,2,5,BlockProc,SpeakerBlocks,5,1,5,5,1,8,Lo,1,1,8,8,975,10,16Perc_LoF0_5_10_con.wav,5,32,5,161,32,female,174162,KoreanPoliteness_F0_KOR_KU,1,22,1,11/23/15,female,2,5,BlockProc,SpeakerBlocks,5,1,5,5,2,8,Lo,1,1,8,8,785,4,16Perc_LoF0_5_4_con.wav,5,27,5,162,27,female,184163,KoreanPoliteness_F0_KOR_KU,1,22,1,11/23/15,female,2,5,BlockProc,SpeakerBlocks,5,1,5,5,3,8,Orig,3,1,8,8,453,2,5_2_con.wav,5,34,5,163,34,female,230164,KoreanPoliteness_F0_KOR_KU,1,22,1,11/23/15,female,2,5,BlockProc,SpeakerBlocks,5,1,5,5,4,8,Orig,3,1,8,8,541,1,5_1_con.wav,5,33,5,164,33,female,216165,KoreanPoliteness_F0_KOR_KU,1,22,1,11/23/15,female,2,5,BlockProc,SpeakerBlocks,5,1,5,5,5,8,Orig,3,1,8,8,428,4,5_4_con.wav,5,35,5,165,35,female,218166,KoreanPoliteness_F0_KOR_KU,1,22,1,11/23/15,female,2,5,BlockProc,SpeakerBlocks,5,1,5,5,6,8,Orig,3,1,8,8,491,10,5_10_con.wav,5,40,5,166,40,female,207167,KoreanPoliteness_F0_KOR_KU,1,22,1,11/23/15,female,2,5,BlockProc,SpeakerBlocks,5,1,5,5,7,8,MidHi,4,1,8,8,2142,1,08Perc_HiF0_5_1_con.wav,5,9,5,167,9,female,233168,KoreanPoliteness_F0_KOR_KU,1,22,1,11/23/15,female,2,5,BlockProc,SpeakerBlocks,5,1,5,5,8,8,Orig,3,1,8,8,698,9,5_9_con.wav,5,39,5,168,39,female,235169,KoreanPoliteness_F0_KOR_KU,1,22,1,11/23/15,female,2,5,BlockProc,SpeakerBlocks,5,1,5,5,9,8,Hi,5,1,8,8,592,1,16Perc_HiF0_5_1_con.wav,5,1,5,169,1,female,250170,KoreanPoliteness_F0_KOR_KU,1,22,1,11/23/15,female,2,5,BlockProc,SpeakerBlocks,5,1,5,5,10,8,MidLo,2,1,8,8,1505,10,08Perc_LoF0_5_10_con.wav,5,24,5,170,24,female,190171,KoreanPoliteness_F0_KOR_KU,1,22,1,11/23/15,female,2,5,BlockProc,SpeakerBlocks,5,1,5,5,11,8,Hi,5,1,8,8,394,2,16Perc_HiF0_5_2_con.wav,5,2,5,171,2,female,268172,KoreanPoliteness_F0_KOR_KU,1,22,1,11/23/15,female,2,5,BlockProc,SpeakerBlocks,5,1,5,5,12,8,MidHi,4,1,8,8,693,10,08Perc_HiF0_5_10_con.wav,5,16,5,172,16,female,223173,KoreanPoliteness_F0_KOR_KU,1,22,1,11/23/15,female,2,5,BlockProc,SpeakerBlocks,5,1,5,5,13,8,Lo,1,1,8,8,655,7,16Perc_LoF0_5_7_con.wav,5,30,5,173,30,female,196174,KoreanPoliteness_F0_KOR_KU,1,22,1,11/23/15,female,2,5,BlockProc,SpeakerBlocks,5,1,5,5,14,8,MidLo,2,1,8,8,785,2,08Perc_LoF0_5_2_con.wav,5,18,5,174,18,female,212175,KoreanPoliteness_F0_KOR_KU,1,22,1,11/23/15,female,2,5,BlockProc,SpeakerBlocks,5,1,5,5,15,8,Lo,1,1,8,8,423,6,16Perc_LoF0_5_6_con.wav,5,29,5,175,29,female,186176,KoreanPoliteness_F0_KOR_KU,1,22,1,11/23/15,female,2,5,BlockProc,SpeakerBlocks,5,1,5,5,16,8,Lo,1,1,8,8,694,5,16Perc_LoF0_5_5_con.wav,5,28,5,176,28,female,185177,KoreanPoliteness_F0_KOR_KU,1,22,1,11/23/15,female,2,5,BlockProc,SpeakerBlocks,5,1,5,5,17,8,Orig,3,1,8,8,376,5,5_5_con.wav,5,36,5,177,36,female,220178,KoreanPoliteness_F0_KOR_KU,1,22,1,11/23/15,female,2,5,BlockProc,SpeakerBlocks,5,1,5,5,18,8,MidLo,2,1,8,8,384,4,08Perc_LoF0_5_4_con.wav,5,19,5,178,19,female,201179,KoreanPoliteness_F0_KOR_KU,1,22,1,11/23/15,female,2,5,BlockProc,SpeakerBlocks,5,1,5,5,19,8,MidLo,2,1,8,8,318,7,08Perc_LoF0_5_7_con.wav,5,22,5,179,22,female,216180,KoreanPoliteness_F0_KOR_KU,1,22,1,11/23/15,female,2,5,BlockProc,SpeakerBlocks,5,1,5,5,20,8,MidHi,4,1,8,8,262,7,08Perc_HiF0_5_7_con.wav,5,14,5,180,14,female,253181,KoreanPoliteness_F0_KOR_KU,1,22,1,11/23/15,female,2,5,BlockProc,SpeakerBlocks,5,1,5,5,21,8,Hi,5,1,8,8,413,4,16Perc_HiF0_5_4_con.wav,5,3,5,181,3,female,253182,KoreanPoliteness_F0_KOR_KU,1,22,1,11/23/15,female,2,5,BlockProc,SpeakerBlocks,5,1,5,5,22,8,MidHi,4,1,8,8,378,4,08Perc_HiF0_5_4_con.wav,5,11,5,182,11,female,236183,KoreanPoliteness_F0_KOR_KU,1,22,1,11/23/15,female,2,5,BlockProc,SpeakerBlocks,5,1,5,5,23,8,Hi,5,1,8,8,424,7,16Perc_HiF0_5_7_con.wav,5,6,5,183,6,female,272184,KoreanPoliteness_F0_KOR_KU,1,22,1,11/23/15,female,2,5,BlockProc,SpeakerBlocks,5,1,5,5,24,8,MidHi,4,1,8,8,586,6,08Perc_HiF0_5_6_con.wav,5,13,5,184,13,female,239185,KoreanPoliteness_F0_KOR_KU,1,22,1,11/23/15,female,2,5,BlockProc,SpeakerBlocks,5,1,5,5,25,8,MidHi,4,1,8,8,1168,2,08Perc_HiF0_5_2_con.wav,5,10,5,185,10,female,249186,KoreanPoliteness_F0_KOR_KU,1,22,1,11/23/15,female,2,5,BlockProc,SpeakerBlocks,5,1,5,5,26,8,Lo,1,1,8,8,638,1,16Perc_LoF0_5_1_con.wav,5,25,5,186,25,female,181187,KoreanPoliteness_F0_KOR_KU,1,22,1,11/23/15,female,2,5,BlockProc,SpeakerBlocks,5,1,5,5,27,8,MidLo,2,1,8,8,416,5,08Perc_LoF0_5_5_con.wav,5,20,5,187,20,female,203188,KoreanPoliteness_F0_KOR_KU,1,22,1,11/23/15,female,2,5,BlockProc,SpeakerBlocks,5,1,5,5,28,8,Lo,1,1,8,8,1328,2,16Perc_LoF0_5_2_con.wav,5,26,5,188,26,female,194189,KoreanPoliteness_F0_KOR_KU,1,22,1,11/23/15,female,2,5,BlockProc,SpeakerBlocks,5,1,5,5,29,8,Orig,3,1,8,8,426,6,5_6_con.wav,5,37,5,189,37,female,221190,KoreanPoliteness_F0_KOR_KU,1,22,1,11/23/15,female,2,5,BlockProc,SpeakerBlocks,5,1,5,5,30,8,Orig,3,1,8,8,843,7,5_7_con.wav,5,38,5,190,38,female,234191,KoreanPoliteness_F0_KOR_KU,1,22,1,11/23/15,female,2,5,BlockProc,SpeakerBlocks,5,1,5,5,31,8,MidLo,2,1,8,8,568,1,08Perc_LoF0_5_1_con.wav,5,17,5,191,17,female,199192,KoreanPoliteness_F0_KOR_KU,1,22,1,11/23/15,female,2,5,BlockProc,SpeakerBlocks,5,1,5,5,32,8,MidHi,4,1,8,8,629,9,08Perc_HiF0_5_9_con.wav,5,15,5,192,15,female,254193,KoreanPoliteness_F0_KOR_KU,1,22,1,11/23/15,female,2,5,BlockProc,SpeakerBlocks,5,1,5,5,33,8,Hi,5,1,8,8,360,5,16Perc_HiF0_5_5_con.wav,5,4,5,193,4,female,256194,KoreanPoliteness_F0_KOR_KU,1,22,1,11/23/15,female,2,5,BlockProc,SpeakerBlocks,5,1,5,5,34,8,MidLo,2,1,8,8,1852,6,08Perc_LoF0_5_6_con.wav,5,21,5,194,21,female,204195,KoreanPoliteness_F0_KOR_KU,1,22,1,11/23/15,female,2,5,BlockProc,SpeakerBlocks,5,1,5,5,35,8,Lo,1,1,8,8,357,9,16Perc_LoF0_5_9_con.wav,5,31,5,195,31,female,197196,KoreanPoliteness_F0_KOR_KU,1,22,1,11/23/15,female,2,5,BlockProc,SpeakerBlocks,5,1,5,5,36,8,MidLo,2,1,8,8,435,9,08Perc_LoF0_5_9_con.wav,5,23,5,196,23,female,217197,KoreanPoliteness_F0_KOR_KU,1,22,1,11/23/15,female,2,5,BlockProc,SpeakerBlocks,5,1,5,5,37,8,MidHi,4,1,8,8,662,5,08Perc_HiF0_5_5_con.wav,5,12,5,197,12,female,239198,KoreanPoliteness_F0_KOR_KU,1,22,1,11/23/15,female,2,5,BlockProc,SpeakerBlocks,5,1,5,5,38,8,Hi,5,1,8,8,444,9,16Perc_HiF0_5_9_con.wav,5,7,5,198,7,female,273199,KoreanPoliteness_F0_KOR_KU,1,22,1,11/23/15,female,2,5,BlockProc,SpeakerBlocks,5,1,5,5,39,8,Hi,5,1,8,8,1220,6,16Perc_HiF0_5_6_con.wav,5,5,5,199,5,female,257200,KoreanPoliteness_F0_KOR_KU,1,22,1,11/23/15,female,2,5,BlockProc,SpeakerBlocks,5,1,5,5,40,8,Hi,5,1,8,8,437,10,16Perc_HiF0_5_10_con.wav,5,8,5,200,8,female,240201,KoreanPoliteness_F0_KOR_KU,1,22,1,11/23/15,female,2,6,BlockProc,SpeakerBlocks,1,1,6,1,1,8,MidHi,4,1,8,8,958,2,08Perc_HiF0_1_2_con.wav,1,10,6,201,10,male,100202,KoreanPoliteness_F0_KOR_KU,1,22,1,11/23/15,female,2,6,BlockProc,SpeakerBlocks,1,1,6,1,2,8,Hi,5,1,8,8,456,2,16Perc_HiF0_1_2_con.wav,1,2,6,202,2,male,107203,KoreanPoliteness_F0_KOR_KU,1,22,1,11/23/15,female,2,6,BlockProc,SpeakerBlocks,1,1,6,1,3,8,Hi,5,1,8,8,988,4,16Perc_HiF0_1_4_con.wav,1,3,6,203,3,male,113204,KoreanPoliteness_F0_KOR_KU,1,22,1,11/23/15,female,2,6,BlockProc,SpeakerBlocks,1,1,6,1,4,8,Orig,3,1,8,8,419,5,1_5_con.wav,1,36,6,204,36,male,91205,KoreanPoliteness_F0_KOR_KU,1,22,1,11/23/15,female,2,6,BlockProc,SpeakerBlocks,1,1,6,1,5,8,Orig,3,1,8,8,1044,4,1_4_con.wav,1,35,6,205,35,male,97206,KoreanPoliteness_F0_KOR_KU,1,22,1,11/23/15,female,2,6,BlockProc,SpeakerBlocks,1,1,6,1,6,8,Hi,5,1,8,8,409,9,16Perc_HiF0_1_9_con.wav,1,7,6,206,7,male,110207,KoreanPoliteness_F0_KOR_KU,1,22,1,11/23/15,female,2,6,BlockProc,SpeakerBlocks,1,1,6,1,7,8,Lo,1,1,8,8,391,5,16Perc_LoF0_1_5_con.wav,1,28,6,207,28,male,77208,KoreanPoliteness_F0_KOR_KU,1,22,1,11/23/15,female,2,6,BlockProc,SpeakerBlocks,1,1,6,1,8,8,MidHi,4,1,8,8,420,9,08Perc_HiF0_1_9_con.wav,1,15,6,208,15,male,103209,KoreanPoliteness_F0_KOR_KU,1,22,1,11/23/15,female,2,6,BlockProc,SpeakerBlocks,1,1,6,1,9,8,MidLo,2,1,8,8,680,1,08Perc_LoF0_1_1_con.wav,1,17,6,209,17,male,86210,KoreanPoliteness_F0_KOR_KU,1,22,1,11/23/15,female,2,6,BlockProc,SpeakerBlocks,1,1,6,1,10,8,Orig,3,1,8,8,393,1,1_1_con.wav,1,33,6,210,33,male,94211,KoreanPoliteness_F0_KOR_KU,1,22,1,11/23/15,female,2,6,BlockProc,SpeakerBlocks,1,1,6,1,11,8,MidLo,2,1,8,8,1139,7,08Perc_LoF0_1_7_con.wav,1,22,6,211,22,male,85212,KoreanPoliteness_F0_KOR_KU,1,22,1,11/23/15,female,2,6,BlockProc,SpeakerBlocks,1,1,6,1,12,8,Orig,3,1,8,8,624,2,1_2_con.wav,1,34,6,212,34,male,93213,KoreanPoliteness_F0_KOR_KU,1,22,1,11/23/15,female,2,6,BlockProc,SpeakerBlocks,1,1,6,1,13,8,Lo,1,1,8,8,444,2,16Perc_LoF0_1_2_con.wav,1,26,6,213,26,male,83214,KoreanPoliteness_F0_KOR_KU,1,22,1,11/23/15,female,2,6,BlockProc,SpeakerBlocks,1,1,6,1,14,8,MidLo,2,1,8,8,861,6,08Perc_LoF0_1_6_con.wav,1,21,6,214,21,male,84215,KoreanPoliteness_F0_KOR_KU,1,22,1,11/23/15,female,2,6,BlockProc,SpeakerBlocks,1,1,6,1,15,8,Orig,3,1,8,8,721,7,1_7_con.wav,1,38,6,215,38,male,92216,KoreanPoliteness_F0_KOR_KU,1,22,1,11/23/15,female,2,6,BlockProc,SpeakerBlocks,1,1,6,1,16,8,Hi,5,1,8,8,481,10,16Perc_HiF0_1_10_con.wav,1,8,6,216,8,male,107217,KoreanPoliteness_F0_KOR_KU,1,22,1,11/23/15,female,2,6,BlockProc,SpeakerBlocks,1,1,6,1,17,8,MidLo,2,1,8,8,420,10,08Perc_LoF0_1_10_con.wav,1,24,6,217,24,male,86218,KoreanPoliteness_F0_KOR_KU,1,22,1,11/23/15,female,2,6,BlockProc,SpeakerBlocks,1,1,6,1,18,8,MidHi,4,1,8,8,1203,1,08Perc_HiF0_1_1_con.wav,1,9,6,218,9,male,100219,KoreanPoliteness_F0_KOR_KU,1,22,1,11/23/15,female,2,6,BlockProc,SpeakerBlocks,1,1,6,1,19,8,Hi,5,1,8,8,405,1,16Perc_HiF0_1_1_con.wav,1,1,6,219,1,male,108220,KoreanPoliteness_F0_KOR_KU,1,22,1,11/23/15,female,2,6,BlockProc,SpeakerBlocks,1,1,6,1,20,8,Lo,1,0,8,2,853,10,16Perc_LoF0_1_10_con.wav,1,32,6,220,32,male,77221,KoreanPoliteness_F0_KOR_KU,1,22,1,11/23/15,female,2,6,BlockProc,SpeakerBlocks,1,1,6,1,21,8,MidLo,2,0,8,2,279,9,08Perc_LoF0_1_9_con.wav,1,23,6,221,23,male,88222,KoreanPoliteness_F0_KOR_KU,1,22,1,11/23/15,female,2,6,BlockProc,SpeakerBlocks,1,1,6,1,22,8,Lo,1,0,8,2,1010,4,16Perc_LoF0_1_4_con.wav,1,27,6,222,27,male,82223,KoreanPoliteness_F0_KOR_KU,1,22,1,11/23/15,female,2,6,BlockProc,SpeakerBlocks,1,1,6,1,23,8,Orig,3,0,8,2,306,9,1_9_con.wav,1,39,6,223,39,male,95224,KoreanPoliteness_F0_KOR_KU,1,22,1,11/23/15,female,2,6,BlockProc,SpeakerBlocks,1,1,6,1,24,8,Lo,1,0,8,2,546,7,16Perc_LoF0_1_7_con.wav,1,30,6,224,30,male,78225,KoreanPoliteness_F0_KOR_KU,1,22,1,11/23/15,female,2,6,BlockProc,SpeakerBlocks,1,1,6,1,25,8,Lo,1,0,8,2,249,6,16Perc_LoF0_1_6_con.wav,1,29,6,225,29,male,77226,KoreanPoliteness_F0_KOR_KU,1,22,1,11/23/15,female,2,6,BlockProc,SpeakerBlocks,1,1,6,1,26,8,Hi,5,1,8,8,138,5,16Perc_HiF0_1_5_con.wav,1,4,6,226,4,male,106227,KoreanPoliteness_F0_KOR_KU,1,22,1,11/23/15,female,2,6,BlockProc,SpeakerBlocks,1,1,6,1,27,8,Hi,5,1,8,8,301,7,16Perc_HiF0_1_7_con.wav,1,6,6,227,6,male,108228,KoreanPoliteness_F0_KOR_KU,1,22,1,11/23/15,female,2,6,BlockProc,SpeakerBlocks,1,1,6,1,28,8,Orig,3,1,8,8,880,6,1_6_con.wav,1,37,6,228,37,male,90229,KoreanPoliteness_F0_KOR_KU,1,22,1,11/23/15,female,2,6,BlockProc,SpeakerBlocks,1,1,6,1,29,8,MidLo,2,1,8,8,936,4,08Perc_LoF0_1_4_con.wav,1,19,6,229,19,male,90230,KoreanPoliteness_F0_KOR_KU,1,22,1,11/23/15,female,2,6,BlockProc,SpeakerBlocks,1,1,6,1,30,8,Hi,5,1,8,8,341,6,16Perc_HiF0_1_6_con.wav,1,5,6,230,5,male,105231,KoreanPoliteness_F0_KOR_KU,1,22,1,11/23/15,female,2,6,BlockProc,SpeakerBlocks,1,1,6,1,31,8,MidLo,2,1,8,8,165,5,08Perc_LoF0_1_5_con.wav,1,20,6,231,20,male,85232,KoreanPoliteness_F0_KOR_KU,1,22,1,11/23/15,female,2,6,BlockProc,SpeakerBlocks,1,1,6,1,32,8,MidHi,4,1,8,8,873,10,08Perc_HiF0_1_10_con.wav,1,16,6,232,16,male,99233,KoreanPoliteness_F0_KOR_KU,1,22,1,11/23/15,female,2,6,BlockProc,SpeakerBlocks,1,1,6,1,33,8,MidHi,4,1,8,8,253,7,08Perc_HiF0_1_7_con.wav,1,14,6,233,14,male,99234,KoreanPoliteness_F0_KOR_KU,1,22,1,11/23/15,female,2,6,BlockProc,SpeakerBlocks,1,1,6,1,34,8,MidHi,4,1,8,8,644,4,08Perc_HiF0_1_4_con.wav,1,11,6,234,11,male,105235,KoreanPoliteness_F0_KOR_KU,1,22,1,11/23/15,female,2,6,BlockProc,SpeakerBlocks,1,1,6,1,35,8,Lo,1,1,8,8,519,9,16Perc_LoF0_1_9_con.wav,1,31,6,235,31,male,80236,KoreanPoliteness_F0_KOR_KU,1,22,1,11/23/15,female,2,6,BlockProc,SpeakerBlocks,1,1,6,1,36,8,Lo,1,1,8,8,557,1,16Perc_LoF0_1_1_con.wav,1,25,6,236,25,male,79237,KoreanPoliteness_F0_KOR_KU,1,22,1,11/23/15,female,2,6,BlockProc,SpeakerBlocks,1,1,6,1,37,8,MidHi,4,1,8,8,584,5,08Perc_HiF0_1_5_con.wav,1,12,6,237,12,male,99238,KoreanPoliteness_F0_KOR_KU,1,22,1,11/23/15,female,2,6,BlockProc,SpeakerBlocks,1,1,6,1,38,8,MidHi,4,1,8,8,447,6,08Perc_HiF0_1_6_con.wav,1,13,6,238,13,male,97239,KoreanPoliteness_F0_KOR_KU,1,22,1,11/23/15,female,2,6,BlockProc,SpeakerBlocks,1,1,6,1,39,8,Orig,3,1,8,8,358,10,1_10_con.wav,1,40,6,239,40,male,93240,KoreanPoliteness_F0_KOR_KU,1,22,1,11/23/15,female,2,6,BlockProc,SpeakerBlocks,1,1,6,1,40,8,MidLo,2,0,8,2,198,2,08Perc_LoF0_1_2_con.wav,1,18,6,240,18,male,90241,KoreanPoliteness_F0_KOR_KU,1,22,1,11/23/15,female,2,7,BlockProc,SpeakerBlocks,8,1,7,8,1,8,MidHi,4,0,8,2,860,5,08Perc_HiF0_8_5_con.wav,8,12,7,241,12,male,128242,KoreanPoliteness_F0_KOR_KU,1,22,1,11/23/15,female,2,7,BlockProc,SpeakerBlocks,8,1,7,8,2,8,Orig,3,0,8,2,481,9,8_9_con.wav,8,39,7,242,39,male,130243,KoreanPoliteness_F0_KOR_KU,1,22,1,11/23/15,female,2,7,BlockProc,SpeakerBlocks,8,1,7,8,3,8,Lo,1,0,8,2,513,5,16Perc_LoF0_8_5_con.wav,8,28,7,243,28,male,100244,KoreanPoliteness_F0_KOR_KU,1,22,1,11/23/15,female,2,7,BlockProc,SpeakerBlocks,8,1,7,8,4,8,Hi,5,0,8,2,438,7,16Perc_HiF0_8_7_con.wav,8,6,7,244,6,male,147245,KoreanPoliteness_F0_KOR_KU,1,22,1,11/23/15,female,2,7,BlockProc,SpeakerBlocks,8,1,7,8,5,8,Lo,1,0,8,2,630,4,16Perc_LoF0_8_4_con.wav,8,27,7,245,27,male,101246,KoreanPoliteness_F0_KOR_KU,1,22,1,11/23/15,female,2,7,BlockProc,SpeakerBlocks,8,1,7,8,6,8,MidHi,4,0,8,2,582,9,08Perc_HiF0_8_9_con.wav,8,15,7,246,15,male,140247,KoreanPoliteness_F0_KOR_KU,1,22,1,11/23/15,female,2,7,BlockProc,SpeakerBlocks,8,1,7,8,7,8,MidHi,4,0,8,2,748,6,08Perc_HiF0_8_6_con.wav,8,13,7,247,13,male,129248,KoreanPoliteness_F0_KOR_KU,1,22,1,11/23/15,female,2,7,BlockProc,SpeakerBlocks,8,1,7,8,8,8,MidLo,2,0,8,2,781,2,08Perc_LoF0_8_2_con.wav,8,18,7,248,18,male,113249,KoreanPoliteness_F0_KOR_KU,1,22,1,11/23/15,female,2,7,BlockProc,SpeakerBlocks,8,1,7,8,9,8,MidHi,4,0,8,2,590,4,08Perc_HiF0_8_4_con.wav,8,11,7,249,11,male,130250,KoreanPoliteness_F0_KOR_KU,1,22,1,11/23/15,female,2,7,BlockProc,SpeakerBlocks,8,1,7,8,10,8,Orig,3,0,8,2,524,5,8_5_con.wav,8,36,7,250,36,male,119251,KoreanPoliteness_F0_KOR_KU,1,22,1,11/23/15,female,2,7,BlockProc,SpeakerBlocks,8,1,7,8,11,8,MidHi,4,0,8,2,864,1,08Perc_HiF0_8_1_con.wav,8,9,7,251,9,male,124252,KoreanPoliteness_F0_KOR_KU,1,22,1,11/23/15,female,2,7,BlockProc,SpeakerBlocks,8,1,7,8,12,8,MidLo,2,0,8,2,399,7,08Perc_LoF0_8_7_con.wav,8,22,7,252,22,male,117253,KoreanPoliteness_F0_KOR_KU,1,22,1,11/23/15,female,2,7,BlockProc,SpeakerBlocks,8,1,7,8,13,8,Hi,5,0,8,2,347,9,16Perc_HiF0_8_9_con.wav,8,7,7,253,7,male,150254,KoreanPoliteness_F0_KOR_KU,1,22,1,11/23/15,female,2,7,BlockProc,SpeakerBlocks,8,1,7,8,14,8,MidLo,2,0,8,2,363,9,08Perc_LoF0_8_9_con.wav,8,23,7,254,23,male,119255,KoreanPoliteness_F0_KOR_KU,1,22,1,11/23/15,female,2,7,BlockProc,SpeakerBlocks,8,1,7,8,15,8,Hi,5,0,8,2,442,6,16Perc_HiF0_8_6_con.wav,8,5,7,255,5,male,139256,KoreanPoliteness_F0_KOR_KU,1,22,1,11/23/15,female,2,7,BlockProc,SpeakerBlocks,8,1,7,8,16,8,MidHi,4,0,8,2,481,7,08Perc_HiF0_8_7_con.wav,8,14,7,256,14,male,137257,KoreanPoliteness_F0_KOR_KU,1,22,1,11/23/15,female,2,7,BlockProc,SpeakerBlocks,8,1,7,8,17,8,MidLo,2,0,8,2,421,5,08Perc_LoF0_8_5_con.wav,8,20,7,257,20,male,109258,KoreanPoliteness_F0_KOR_KU,1,22,1,11/23/15,female,2,7,BlockProc,SpeakerBlocks,8,1,7,8,18,8,Orig,3,0,8,2,394,10,8_10_con.wav,8,40,7,258,40,male,121259,KoreanPoliteness_F0_KOR_KU,1,22,1,11/23/15,female,2,7,BlockProc,SpeakerBlocks,8,1,7,8,19,8,Orig,3,0,8,2,434,7,8_7_con.wav,8,38,7,259,38,male,127260,KoreanPoliteness_F0_KOR_KU,1,22,1,11/23/15,female,2,7,BlockProc,SpeakerBlocks,8,1,7,8,20,8,Hi,5,0,8,2,639,2,16Perc_HiF0_8_2_con.wav,8,2,7,260,2,male,143261,KoreanPoliteness_F0_KOR_KU,1,22,1,11/23/15,female,2,7,BlockProc,SpeakerBlocks,8,1,7,8,21,8,Lo,1,0,8,2,572,6,16Perc_LoF0_8_6_con.wav,8,29,7,261,29,male,100262,KoreanPoliteness_F0_KOR_KU,1,22,1,11/23/15,female,2,7,BlockProc,SpeakerBlocks,8,1,7,8,22,8,MidLo,2,0,8,2,357,10,08Perc_LoF0_8_10_con.wav,8,24,7,262,24,male,111263,KoreanPoliteness_F0_KOR_KU,1,22,1,11/23/15,female,2,7,BlockProc,SpeakerBlocks,8,1,7,8,23,8,Orig,3,0,8,2,518,6,8_6_con.wav,8,37,7,263,37,male,119264,KoreanPoliteness_F0_KOR_KU,1,22,1,11/23/15,female,2,7,BlockProc,SpeakerBlocks,8,1,7,8,24,8,Hi,5,0,8,2,573,10,16Perc_HiF0_8_10_con.wav,8,8,7,264,8,male,140265,KoreanPoliteness_F0_KOR_KU,1,22,1,11/23/15,female,2,7,BlockProc,SpeakerBlocks,8,1,7,8,25,8,MidLo,2,0,8,2,561,6,08Perc_LoF0_8_6_con.wav,8,21,7,265,21,male,110266,KoreanPoliteness_F0_KOR_KU,1,22,1,11/23/15,female,2,7,BlockProc,SpeakerBlocks,8,1,7,8,26,8,Lo,1,0,8,2,592,1,16Perc_LoF0_8_1_con.wav,8,25,7,266,25,male,96267,KoreanPoliteness_F0_KOR_KU,1,22,1,11/23/15,female,2,7,BlockProc,SpeakerBlocks,8,1,7,8,27,8,Lo,1,0,8,2,645,9,16Perc_LoF0_8_9_con.wav,8,31,7,267,31,male,109268,KoreanPoliteness_F0_KOR_KU,1,22,1,11/23/15,female,2,7,BlockProc,SpeakerBlocks,8,1,7,8,28,8,MidLo,2,0,8,2,591,4,08Perc_LoF0_8_4_con.wav,8,19,7,268,19,male,111269,KoreanPoliteness_F0_KOR_KU,1,22,1,11/23/15,female,2,7,BlockProc,SpeakerBlocks,8,1,7,8,29,8,Orig,3,0,8,2,702,2,8_2_con.wav,8,34,7,269,34,male,123270,KoreanPoliteness_F0_KOR_KU,1,22,1,11/23/15,female,2,7,BlockProc,SpeakerBlocks,8,1,7,8,30,8,Lo,1,0,8,2,629,7,16Perc_LoF0_8_7_con.wav,8,30,7,270,30,male,106271,KoreanPoliteness_F0_KOR_KU,1,22,1,11/23/15,female,2,7,BlockProc,SpeakerBlocks,8,1,7,8,31,8,MidHi,4,0,8,2,1069,2,08Perc_HiF0_8_2_con.wav,8,10,7,271,10,male,133272,KoreanPoliteness_F0_KOR_KU,1,22,1,11/23/15,female,2,7,BlockProc,SpeakerBlocks,8,1,7,8,32,8,MidLo,2,0,8,2,618,1,08Perc_LoF0_8_1_con.wav,8,17,7,272,17,male,105273,KoreanPoliteness_F0_KOR_KU,1,22,1,11/23/15,female,2,7,BlockProc,SpeakerBlocks,8,1,7,8,33,8,Hi,5,0,8,2,681,1,16Perc_HiF0_8_1_con.wav,8,1,7,273,1,male,133274,KoreanPoliteness_F0_KOR_KU,1,22,1,11/23/15,female,2,7,BlockProc,SpeakerBlocks,8,1,7,8,34,8,Hi,5,0,8,2,662,5,16Perc_HiF0_8_5_con.wav,8,4,7,274,4,male,138275,KoreanPoliteness_F0_KOR_KU,1,22,1,11/23/15,female,2,7,BlockProc,SpeakerBlocks,8,1,7,8,35,8,MidHi,4,0,8,2,577,10,08Perc_HiF0_8_10_con.wav,8,16,7,275,16,male,130276,KoreanPoliteness_F0_KOR_KU,1,22,1,11/23/15,female,2,7,BlockProc,SpeakerBlocks,8,1,7,8,36,8,Lo,1,0,8,2,366,10,16Perc_LoF0_8_10_con.wav,8,32,7,276,32,male,101277,KoreanPoliteness_F0_KOR_KU,1,22,1,11/23/15,female,2,7,BlockProc,SpeakerBlocks,8,1,7,8,37,8,Orig,3,0,8,2,739,4,8_4_con.wav,8,35,7,277,35,male,121278,KoreanPoliteness_F0_KOR_KU,1,22,1,11/23/15,female,2,7,BlockProc,SpeakerBlocks,8,1,7,8,38,8,Lo,1,0,8,2,628,2,16Perc_LoF0_8_2_con.wav,8,26,7,278,26,male,103279,KoreanPoliteness_F0_KOR_KU,1,22,1,11/23/15,female,2,7,BlockProc,SpeakerBlocks,8,1,7,8,39,8,Hi,5,0,8,2,348,4,16Perc_HiF0_8_4_con.wav,8,3,7,279,3,male,140280,KoreanPoliteness_F0_KOR_KU,1,22,1,11/23/15,female,2,7,BlockProc,SpeakerBlocks,8,1,7,8,40,8,Orig,3,0,8,2,306,1,8_1_con.wav,8,33,7,280,33,male,114281,KoreanPoliteness_F0_KOR_KU,1,22,1,11/23/15,female,2,8,BlockProc,SpeakerBlocks,4,1,8,4,1,8,MidHi,4,1,8,8,344,2,08Perc_HiF0_4_2_con.wav,4,10,8,281,10,female,204282,KoreanPoliteness_F0_KOR_KU,1,22,1,11/23/15,female,2,8,BlockProc,SpeakerBlocks,4,1,8,4,2,8,MidHi,4,1,8,8,167,9,08Perc_HiF0_4_9_con.wav,4,15,8,282,15,female,210283,KoreanPoliteness_F0_KOR_KU,1,22,1,11/23/15,female,2,8,BlockProc,SpeakerBlocks,4,1,8,4,3,8,MidHi,4,1,8,8,214,6,08Perc_HiF0_4_6_con.wav,4,13,8,283,13,female,189284,KoreanPoliteness_F0_KOR_KU,1,22,1,11/23/15,female,2,8,BlockProc,SpeakerBlocks,4,1,8,4,4,8,MidHi,4,1,8,8,142,7,08Perc_HiF0_4_7_con.wav,4,14,8,284,14,female,197285,KoreanPoliteness_F0_KOR_KU,1,22,1,11/23/15,female,2,8,BlockProc,SpeakerBlocks,4,1,8,4,5,8,Lo,1,1,8,8,221,7,16Perc_LoF0_4_7_con.wav,4,30,8,285,30,female,157286,KoreanPoliteness_F0_KOR_KU,1,22,1,11/23/15,female,2,8,BlockProc,SpeakerBlocks,4,1,8,4,6,8,Lo,1,1,8,8,731,1,16Perc_LoF0_4_1_con.wav,4,25,8,286,25,female,165287,KoreanPoliteness_F0_KOR_KU,1,22,1,11/23/15,female,2,8,BlockProc,SpeakerBlocks,4,1,8,4,7,8,Orig,3,1,8,8,398,2,4_2_con.wav,4,34,8,287,34,female,188288,KoreanPoliteness_F0_KOR_KU,1,22,1,11/23/15,female,2,8,BlockProc,SpeakerBlocks,4,1,8,4,8,8,MidHi,4,1,8,8,480,5,08Perc_HiF0_4_5_con.wav,4,12,8,288,12,female,194289,KoreanPoliteness_F0_KOR_KU,1,22,1,11/23/15,female,2,8,BlockProc,SpeakerBlocks,4,1,8,4,9,8,Orig,3,1,8,8,1071,5,4_5_con.wav,4,36,8,289,36,female,179290,KoreanPoliteness_F0_KOR_KU,1,22,1,11/23/15,female,2,8,BlockProc,SpeakerBlocks,4,1,8,4,10,8,Orig,3,1,8,8,193,6,4_6_con.wav,4,37,8,290,37,female,175291,KoreanPoliteness_F0_KOR_KU,1,22,1,11/23/15,female,2,8,BlockProc,SpeakerBlocks,4,1,8,4,11,8,Lo,1,1,8,8,163,10,16Perc_LoF0_4_10_con.wav,4,32,8,291,32,female,159292,KoreanPoliteness_F0_KOR_KU,1,22,1,11/23/15,female,2,8,BlockProc,SpeakerBlocks,4,1,8,4,12,8,Lo,1,1,8,8,169,6,16Perc_LoF0_4_6_con.wav,4,29,8,292,29,female,147293,KoreanPoliteness_F0_KOR_KU,1,22,1,11/23/15,female,2,8,BlockProc,SpeakerBlocks,4,1,8,4,13,8,Hi,5,1,8,8,148,6,16Perc_HiF0_4_6_con.wav,4,5,8,293,5,female,203294,KoreanPoliteness_F0_KOR_KU,1,22,1,11/23/15,female,2,8,BlockProc,SpeakerBlocks,4,1,8,4,14,8,Hi,5,1,8,8,202,5,16Perc_HiF0_4_5_con.wav,4,4,8,294,4,female,209295,KoreanPoliteness_F0_KOR_KU,1,22,1,11/23/15,female,2,8,BlockProc,SpeakerBlocks,4,1,8,4,15,8,Hi,5,1,8,8,248,4,16Perc_HiF0_4_4_con.wav,4,3,8,295,3,female,223296,KoreanPoliteness_F0_KOR_KU,1,22,1,11/23/15,female,2,8,BlockProc,SpeakerBlocks,4,1,8,4,16,8,Orig,3,1,8,8,116,10,4_10_con.wav,4,40,8,296,40,female,189297,KoreanPoliteness_F0_KOR_KU,1,22,1,11/23/15,female,2,8,BlockProc,SpeakerBlocks,4,1,8,4,17,8,MidHi,4,1,8,8,212,4,08Perc_HiF0_4_4_con.wav,4,11,8,297,11,female,208298,KoreanPoliteness_F0_KOR_KU,1,22,1,11/23/15,female,2,8,BlockProc,SpeakerBlocks,4,1,8,4,18,8,Lo,1,1,8,8,272,5,16Perc_LoF0_4_5_con.wav,4,28,8,298,28,female,151299,KoreanPoliteness_F0_KOR_KU,1,22,1,11/23/15,female,2,8,BlockProc,SpeakerBlocks,4,1,8,4,19,8,Hi,5,1,8,8,200,9,16Perc_HiF0_4_9_con.wav,4,7,8,299,7,female,225300,KoreanPoliteness_F0_KOR_KU,1,22,1,11/23/15,female,2,8,BlockProc,SpeakerBlocks,4,1,8,4,20,8,Hi,5,1,8,8,221,2,16Perc_HiF0_4_2_con.wav,4,2,8,300,2,female,219301,KoreanPoliteness_F0_KOR_KU,1,22,1,11/23/15,female,2,8,BlockProc,SpeakerBlocks,4,1,8,4,21,8,Orig,3,1,8,8,696,1,4_1_con.wav,4,33,8,301,33,female,196302,KoreanPoliteness_F0_KOR_KU,1,22,1,11/23/15,female,2,8,BlockProc,SpeakerBlocks,4,1,8,4,22,8,MidLo,2,1,8,8,289,9,08Perc_LoF0_4_9_con.wav,4,23,8,302,23,female,179303,KoreanPoliteness_F0_KOR_KU,1,22,1,11/23/15,female,2,8,BlockProc,SpeakerBlocks,4,1,8,4,23,8,Hi,5,1,8,8,239,10,16Perc_HiF0_4_10_con.wav,4,8,8,303,8,female,219304,KoreanPoliteness_F0_KOR_KU,1,22,1,11/23/15,female,2,8,BlockProc,SpeakerBlocks,4,1,8,4,24,8,MidLo,2,1,8,8,390,5,08Perc_LoF0_4_5_con.wav,4,20,8,304,20,female,165305,KoreanPoliteness_F0_KOR_KU,1,22,1,11/23/15,female,2,8,BlockProc,SpeakerBlocks,4,1,8,4,25,8,Lo,1,1,8,8,292,9,16Perc_LoF0_4_9_con.wav,4,31,8,305,31,female,163306,KoreanPoliteness_F0_KOR_KU,1,22,1,11/23/15,female,2,8,BlockProc,SpeakerBlocks,4,1,8,4,26,8,Orig,3,1,8,8,430,4,4_4_con.wav,4,35,8,306,35,female,192307,KoreanPoliteness_F0_KOR_KU,1,22,1,11/23/15,female,2,8,BlockProc,SpeakerBlocks,4,1,8,4,27,8,MidLo,2,1,8,8,292,4,08Perc_LoF0_4_4_con.wav,4,19,8,307,19,female,177308,KoreanPoliteness_F0_KOR_KU,1,22,1,11/23/15,female,2,8,BlockProc,SpeakerBlocks,4,1,8,4,28,8,Lo,1,1,8,8,280,2,16Perc_LoF0_4_2_con.wav,4,26,8,308,26,female,158309,KoreanPoliteness_F0_KOR_KU,1,22,1,11/23/15,female,2,8,BlockProc,SpeakerBlocks,4,1,8,4,29,8,MidLo,2,1,8,8,199,6,08Perc_LoF0_4_6_con.wav,4,21,8,309,21,female,161310,KoreanPoliteness_F0_KOR_KU,1,22,1,11/23/15,female,2,8,BlockProc,SpeakerBlocks,4,1,8,4,30,8,Orig,3,1,8,8,173,7,4_7_con.wav,4,38,8,310,38,female,183311,KoreanPoliteness_F0_KOR_KU,1,22,1,11/23/15,female,2,8,BlockProc,SpeakerBlocks,4,1,8,4,31,8,Orig,3,1,8,8,216,9,4_9_con.wav,4,39,8,311,39,female,194312,KoreanPoliteness_F0_KOR_KU,1,22,1,11/23/15,female,2,8,BlockProc,SpeakerBlocks,4,1,8,4,32,8,MidLo,2,1,8,8,257,10,08Perc_LoF0_4_10_con.wav,4,24,8,312,24,female,174313,KoreanPoliteness_F0_KOR_KU,1,22,1,11/23/15,female,2,8,BlockProc,SpeakerBlocks,4,1,8,4,33,8,MidLo,2,1,8,8,223,7,08Perc_LoF0_4_7_con.wav,4,22,8,313,22,female,168314,KoreanPoliteness_F0_KOR_KU,1,22,1,11/23/15,female,2,8,BlockProc,SpeakerBlocks,4,1,8,4,34,8,Hi,5,1,8,8,190,7,16Perc_HiF0_4_7_con.wav,4,6,8,314,6,female,212315,KoreanPoliteness_F0_KOR_KU,1,22,1,11/23/15,female,2,8,BlockProc,SpeakerBlocks,4,1,8,4,35,8,MidHi,4,1,8,8,242,10,08Perc_HiF0_4_10_con.wav,4,16,8,315,16,female,204316,KoreanPoliteness_F0_KOR_KU,1,22,1,11/23/15,female,2,8,BlockProc,SpeakerBlocks,4,1,8,4,36,8,MidLo,2,1,8,8,388,1,08Perc_LoF0_4_1_con.wav,4,17,8,316,17,female,180317,KoreanPoliteness_F0_KOR_KU,1,22,1,11/23/15,female,2,8,BlockProc,SpeakerBlocks,4,1,8,4,37,8,MidLo,2,1,8,8,312,2,08Perc_LoF0_4_2_con.wav,4,18,8,317,18,female,173318,KoreanPoliteness_F0_KOR_KU,1,22,1,11/23/15,female,2,8,BlockProc,SpeakerBlocks,4,1,8,4,38,8,MidHi,4,1,8,8,502,1,08Perc_HiF0_4_1_con.wav,4,9,8,318,9,female,213319,KoreanPoliteness_F0_KOR_KU,1,22,1,11/23/15,female,2,8,BlockProc,SpeakerBlocks,4,1,8,4,39,8,Lo,1,1,8,8,313,4,16Perc_LoF0_4_4_con.wav,4,27,8,319,27,female,162320,KoreanPoliteness_F0_KOR_KU,1,22,1,11/23/15,female,2,8,BlockProc,SpeakerBlocks,4,1,8,4,40,8,Hi,5,1,8,8,567,1,16Perc_HiF0_4_1_con.wav,4,1,8,320,1,female,228321,KoreanPoliteness_F0_KOR_KU,10,23,1,11/25/15,female,2,1,BlockProc,SpeakerBlocks,3,1,1,3,1,8,MidLo,2,0,8,2,267,10,08Perc_LoF0_3_10_con.wav,3,24,1,1,24,male,90322,KoreanPoliteness_F0_KOR_KU,10,23,1,11/25/15,female,2,1,BlockProc,SpeakerBlocks,3,1,1,3,2,8,MidHi,4,1,8,8,300,2,08Perc_HiF0_3_2_con.wav,3,10,1,2,10,male,102323,KoreanPoliteness_F0_KOR_KU,10,23,1,11/25/15,female,2,1,BlockProc,SpeakerBlocks,3,1,1,3,3,8,Orig,3,0,8,2,715,9,3_9_con.wav,3,39,1,3,39,male,100324,KoreanPoliteness_F0_KOR_KU,10,23,1,11/25/15,female,2,1,BlockProc,SpeakerBlocks,3,1,1,3,4,8,Orig,3,0,8,2,392,1,3_1_con.wav,3,33,1,4,33,male,103325,KoreanPoliteness_F0_KOR_KU,10,23,1,11/25/15,female,2,1,BlockProc,SpeakerBlocks,3,1,1,3,5,8,Lo,1,0,8,2,483,2,16Perc_LoF0_3_2_con.wav,3,26,1,5,26,male,80326,KoreanPoliteness_F0_KOR_KU,10,23,1,11/25/15,female,2,1,BlockProc,SpeakerBlocks,3,1,1,3,6,8,MidLo,2,0,8,2,905,9,08Perc_LoF0_3_9_con.wav,3,23,1,6,23,male,94327,KoreanPoliteness_F0_KOR_KU,10,23,1,11/25/15,female,2,1,BlockProc,SpeakerBlocks,3,1,1,3,7,8,MidLo,2,0,8,2,441,1,08Perc_LoF0_3_1_con.wav,3,17,1,7,17,male,94328,KoreanPoliteness_F0_KOR_KU,10,23,1,11/25/15,female,2,1,BlockProc,SpeakerBlocks,3,1,1,3,8,8,Lo,1,0,8,2,240,6,16Perc_LoF0_3_6_con.wav,3,29,1,8,29,male,87329,KoreanPoliteness_F0_KOR_KU,10,23,1,11/25/15,female,2,1,BlockProc,SpeakerBlocks,3,1,1,3,9,8,Orig,3,0,8,2,350,4,3_4_con.wav,3,35,1,9,35,male,104330,KoreanPoliteness_F0_KOR_KU,10,23,1,11/25/15,female,2,1,BlockProc,SpeakerBlocks,3,1,1,3,10,8,MidLo,2,1,8,8,450,5,08Perc_LoF0_3_5_con.wav,3,20,1,10,20,male,86331,KoreanPoliteness_F0_KOR_KU,10,23,1,11/25/15,female,2,1,BlockProc,SpeakerBlocks,3,1,1,3,11,8,Lo,1,1,8,8,324,9,16Perc_LoF0_3_9_con.wav,3,31,1,11,31,male,85332,KoreanPoliteness_F0_KOR_KU,10,23,1,11/25/15,female,2,1,BlockProc,SpeakerBlocks,3,1,1,3,12,8,Hi,5,1,8,8,477,4,16Perc_HiF0_3_4_con.wav,3,3,1,12,3,male,121333,KoreanPoliteness_F0_KOR_KU,10,23,1,11/25/15,female,2,1,BlockProc,SpeakerBlocks,3,1,1,3,13,8,Hi,5,1,8,8,699,2,16Perc_HiF0_3_2_con.wav,3,2,1,13,2,male,110334,KoreanPoliteness_F0_KOR_KU,10,23,1,11/25/15,female,2,1,BlockProc,SpeakerBlocks,3,1,1,3,14,8,MidLo,2,0,8,2,647,7,08Perc_LoF0_3_7_con.wav,3,22,1,14,22,male,93335,KoreanPoliteness_F0_KOR_KU,10,23,1,11/25/15,female,2,1,BlockProc,SpeakerBlocks,3,1,1,3,15,8,MidHi,4,1,8,8,830,7,08Perc_HiF0_3_7_con.wav,3,14,1,15,14,male,108336,KoreanPoliteness_F0_KOR_KU,10,23,1,11/25/15,female,2,1,BlockProc,SpeakerBlocks,3,1,1,3,16,8,MidLo,2,0,8,2,1086,2,08Perc_LoF0_3_2_con.wav,3,18,1,16,18,male,87337,KoreanPoliteness_F0_KOR_KU,10,23,1,11/25/15,female,2,1,BlockProc,SpeakerBlocks,3,1,1,3,17,8,MidHi,4,1,8,8,805,4,08Perc_HiF0_3_4_con.wav,3,11,1,17,11,male,113338,KoreanPoliteness_F0_KOR_KU,10,23,1,11/25/15,female,2,1,BlockProc,SpeakerBlocks,3,1,1,3,18,8,Hi,5,1,8,8,232,5,16Perc_HiF0_3_5_con.wav,3,4,1,18,4,male,107339,KoreanPoliteness_F0_KOR_KU,10,23,1,11/25/15,female,2,1,BlockProc,SpeakerBlocks,3,1,1,3,19,8,MidHi,4,1,8,8,703,9,08Perc_HiF0_3_9_con.wav,3,15,1,19,15,male,109340,KoreanPoliteness_F0_KOR_KU,10,23,1,11/25/15,female,2,1,BlockProc,SpeakerBlocks,3,1,1,3,20,8,Lo,1,1,8,8,272,7,16Perc_LoF0_3_7_con.wav,3,30,1,20,30,male,84341,KoreanPoliteness_F0_KOR_KU,10,23,1,11/25/15,female,2,1,BlockProc,SpeakerBlocks,3,1,1,3,21,8,Lo,1,1,8,8,634,10,16Perc_LoF0_3_10_con.wav,3,32,1,21,32,male,83342,KoreanPoliteness_F0_KOR_KU,10,23,1,11/25/15,female,2,1,BlockProc,SpeakerBlocks,3,1,1,3,22,8,MidLo,2,1,8,8,291,6,08Perc_LoF0_3_6_con.wav,3,21,1,22,21,male,95343,KoreanPoliteness_F0_KOR_KU,10,23,1,11/25/15,female,2,1,BlockProc,SpeakerBlocks,3,1,1,3,23,8,Lo,1,1,8,8,393,1,16Perc_LoF0_3_1_con.wav,3,25,1,23,25,male,87344,KoreanPoliteness_F0_KOR_KU,10,23,1,11/25/15,female,2,1,BlockProc,SpeakerBlocks,3,1,1,3,24,8,MidHi,4,0,8,2,553,6,08Perc_HiF0_3_6_con.wav,3,13,1,24,13,male,111345,KoreanPoliteness_F0_KOR_KU,10,23,1,11/25/15,female,2,1,BlockProc,SpeakerBlocks,3,1,1,3,25,8,Hi,5,0,8,2,341,1,16Perc_HiF0_3_1_con.wav,3,1,1,25,1,male,119346,KoreanPoliteness_F0_KOR_KU,10,23,1,11/25/15,female,2,1,BlockProc,SpeakerBlocks,3,1,1,3,26,8,MidHi,4,0,8,2,248,10,08Perc_HiF0_3_10_con.wav,3,16,1,26,16,male,106347,KoreanPoliteness_F0_KOR_KU,10,23,1,11/25/15,female,2,1,BlockProc,SpeakerBlocks,3,1,1,3,27,8,Hi,5,0,8,2,258,6,16Perc_HiF0_3_6_con.wav,3,5,1,27,5,male,119348,KoreanPoliteness_F0_KOR_KU,10,23,1,11/25/15,female,2,1,BlockProc,SpeakerBlocks,3,1,1,3,28,8,Hi,5,0,8,2,336,7,16Perc_HiF0_3_7_con.wav,3,6,1,28,6,male,116349,KoreanPoliteness_F0_KOR_KU,10,23,1,11/25/15,female,2,1,BlockProc,SpeakerBlocks,3,1,1,3,29,8,Orig,3,0,8,2,285,10,3_10_con.wav,3,40,1,29,40,male,98350,KoreanPoliteness_F0_KOR_KU,10,23,1,11/25/15,female,2,1,BlockProc,SpeakerBlocks,3,1,1,3,30,8,Hi,5,0,8,2,602,10,16Perc_HiF0_3_10_con.wav,3,8,1,30,8,male,114351,KoreanPoliteness_F0_KOR_KU,10,23,1,11/25/15,female,2,1,BlockProc,SpeakerBlocks,3,1,1,3,31,8,MidLo,2,1,8,8,361,4,08Perc_LoF0_3_4_con.wav,3,19,1,31,19,male,96352,KoreanPoliteness_F0_KOR_KU,10,23,1,11/25/15,female,2,1,BlockProc,SpeakerBlocks,3,1,1,3,32,8,Orig,3,1,8,8,276,5,3_5_con.wav,3,36,1,32,36,male,92353,KoreanPoliteness_F0_KOR_KU,10,23,1,11/25/15,female,2,1,BlockProc,SpeakerBlocks,3,1,1,3,33,8,Lo,1,1,8,8,580,4,16Perc_LoF0_3_4_con.wav,3,27,1,33,27,male,88354,KoreanPoliteness_F0_KOR_KU,10,23,1,11/25/15,female,2,1,BlockProc,SpeakerBlocks,3,1,1,3,34,8,Hi,5,1,8,8,487,9,16Perc_HiF0_3_9_con.wav,3,7,1,34,7,male,116355,KoreanPoliteness_F0_KOR_KU,10,23,1,11/25/15,female,2,1,BlockProc,SpeakerBlocks,3,1,1,3,35,8,MidHi,4,1,8,8,564,1,08Perc_HiF0_3_1_con.wav,3,9,1,35,9,male,112356,KoreanPoliteness_F0_KOR_KU,10,23,1,11/25/15,female,2,1,BlockProc,SpeakerBlocks,3,1,1,3,36,8,Orig,3,1,8,8,794,6,3_6_con.wav,3,37,1,36,37,male,103357,KoreanPoliteness_F0_KOR_KU,10,23,1,11/25/15,female,2,1,BlockProc,SpeakerBlocks,3,1,1,3,37,8,Lo,1,0,8,2,296,5,16Perc_LoF0_3_5_con.wav,3,28,1,37,28,male,78358,KoreanPoliteness_F0_KOR_KU,10,23,1,11/25/15,female,2,1,BlockProc,SpeakerBlocks,3,1,1,3,38,8,Orig,3,1,8,8,634,2,3_2_con.wav,3,34,1,38,34,male,95359,KoreanPoliteness_F0_KOR_KU,10,23,1,11/25/15,female,2,1,BlockProc,SpeakerBlocks,3,1,1,3,39,8,MidHi,4,0,8,2,1040,5,08Perc_HiF0_3_5_con.wav,3,12,1,39,12,male,100360,KoreanPoliteness_F0_KOR_KU,10,23,1,11/25/15,female,2,1,BlockProc,SpeakerBlocks,3,1,1,3,40,8,Orig,3,1,8,8,695,7,3_7_con.wav,3,38,1,40,38,male,100361,KoreanPoliteness_F0_KOR_KU,10,23,1,11/25/15,female,2,2,BlockProc,SpeakerBlocks,2,1,2,2,1,8,Hi,5,1,8,8,350,6,16Perc_HiF0_2_6_con.wav,2,5,2,41,5,female,231362,KoreanPoliteness_F0_KOR_KU,10,23,1,11/25/15,female,2,2,BlockProc,SpeakerBlocks,2,1,2,2,2,8,MidHi,4,1,8,8,270,1,08Perc_HiF0_2_1_con.wav,2,9,2,42,9,female,239363,KoreanPoliteness_F0_KOR_KU,10,23,1,11/25/15,female,2,2,BlockProc,SpeakerBlocks,2,1,2,2,3,8,MidHi,4,1,8,8,315,9,08Perc_HiF0_2_9_con.wav,2,15,2,43,15,female,198364,KoreanPoliteness_F0_KOR_KU,10,23,1,11/25/15,female,2,2,BlockProc,SpeakerBlocks,2,1,2,2,4,8,Lo,1,0,8,2,481,2,16Perc_LoF0_2_2_con.wav,2,26,2,44,26,female,167365,KoreanPoliteness_F0_KOR_KU,10,23,1,11/25/15,female,2,2,BlockProc,SpeakerBlocks,2,1,2,2,5,8,Hi,5,0,8,2,747,7,16Perc_HiF0_2_7_con.wav,2,6,2,45,6,female,218366,KoreanPoliteness_F0_KOR_KU,10,23,1,11/25/15,female,2,2,BlockProc,SpeakerBlocks,2,1,2,2,6,8,Orig,3,0,8,2,597,1,2_1_con.wav,2,33,2,46,33,female,221367,KoreanPoliteness_F0_KOR_KU,10,23,1,11/25/15,female,2,2,BlockProc,SpeakerBlocks,2,1,2,2,7,8,MidLo,2,1,8,8,1229,7,08Perc_LoF0_2_7_con.wav,2,22,2,47,22,female,173368,KoreanPoliteness_F0_KOR_KU,10,23,1,11/25/15,female,2,2,BlockProc,SpeakerBlocks,2,1,2,2,8,8,Lo,1,1,8,8,271,4,16Perc_LoF0_2_4_con.wav,2,27,2,48,27,female,167369,KoreanPoliteness_F0_KOR_KU,10,23,1,11/25/15,female,2,2,BlockProc,SpeakerBlocks,2,1,2,2,9,8,Lo,1,1,8,8,300,7,16Perc_LoF0_2_7_con.wav,2,30,2,49,30,female,158370,KoreanPoliteness_F0_KOR_KU,10,23,1,11/25/15,female,2,2,BlockProc,SpeakerBlocks,2,1,2,2,10,8,Hi,5,1,8,8,337,9,16Perc_HiF0_2_9_con.wav,2,7,2,50,7,female,213371,KoreanPoliteness_F0_KOR_KU,10,23,1,11/25/15,female,2,2,BlockProc,SpeakerBlocks,2,1,2,2,11,8,Lo,1,1,8,8,673,10,16Perc_LoF0_2_10_con.wav,2,32,2,51,32,female,163372,KoreanPoliteness_F0_KOR_KU,10,23,1,11/25/15,female,2,2,BlockProc,SpeakerBlocks,2,1,2,2,12,8,Lo,1,1,8,8,919,5,16Perc_LoF0_2_5_con.wav,2,28,2,52,28,female,159373,KoreanPoliteness_F0_KOR_KU,10,23,1,11/25/15,female,2,2,BlockProc,SpeakerBlocks,2,1,2,2,13,8,Hi,5,0,8,2,401,10,16Perc_HiF0_2_10_con.wav,2,8,2,53,8,female,224374,KoreanPoliteness_F0_KOR_KU,10,23,1,11/25/15,female,2,2,BlockProc,SpeakerBlocks,2,1,2,2,14,8,MidHi,4,0,8,2,682,2,08Perc_HiF0_2_2_con.wav,2,10,2,54,10,female,219375,KoreanPoliteness_F0_KOR_KU,10,23,1,11/25/15,female,2,2,BlockProc,SpeakerBlocks,2,1,2,2,15,8,MidHi,4,1,8,8,375,4,08Perc_HiF0_2_4_con.wav,2,11,2,55,11,female,215376,KoreanPoliteness_F0_KOR_KU,10,23,1,11/25/15,female,2,2,BlockProc,SpeakerBlocks,2,1,2,2,16,8,Orig,3,1,8,8,286,5,2_5_con.wav,2,36,2,56,36,female,188377,KoreanPoliteness_F0_KOR_KU,10,23,1,11/25/15,female,2,2,BlockProc,SpeakerBlocks,2,1,2,2,17,8,Lo,1,1,8,8,928,1,16Perc_LoF0_2_1_con.wav,2,25,2,57,25,female,186378,KoreanPoliteness_F0_KOR_KU,10,23,1,11/25/15,female,2,2,BlockProc,SpeakerBlocks,2,1,2,2,18,8,MidLo,2,1,8,8,572,2,08Perc_LoF0_2_2_con.wav,2,18,2,58,18,female,183379,KoreanPoliteness_F0_KOR_KU,10,23,1,11/25/15,female,2,2,BlockProc,SpeakerBlocks,2,1,2,2,19,8,Hi,5,1,8,8,366,1,16Perc_HiF0_2_1_con.wav,2,1,2,59,1,female,257380,KoreanPoliteness_F0_KOR_KU,10,23,1,11/25/15,female,2,2,BlockProc,SpeakerBlocks,2,1,2,2,20,8,MidLo,2,0,8,2,922,4,08Perc_LoF0_2_4_con.wav,2,19,2,60,19,female,183381,KoreanPoliteness_F0_KOR_KU,10,23,1,11/25/15,female,2,2,BlockProc,SpeakerBlocks,2,1,2,2,21,8,MidLo,2,0,8,2,222,9,08Perc_LoF0_2_9_con.wav,2,23,2,61,23,female,181382,KoreanPoliteness_F0_KOR_KU,10,23,1,11/25/15,female,2,2,BlockProc,SpeakerBlocks,2,1,2,2,22,8,MidHi,4,1,8,8,117,6,08Perc_HiF0_2_6_con.wav,2,13,2,62,13,female,214383,KoreanPoliteness_F0_KOR_KU,10,23,1,11/25/15,female,2,2,BlockProc,SpeakerBlocks,2,1,2,2,23,8,MidHi,4,1,8,8,666,5,08Perc_HiF0_2_5_con.wav,2,12,2,63,12,female,205384,KoreanPoliteness_F0_KOR_KU,10,23,1,11/25/15,female,2,2,BlockProc,SpeakerBlocks,2,1,2,2,24,8,Orig,3,1,8,8,502,7,2_7_con.wav,2,38,2,64,38,female,188385,KoreanPoliteness_F0_KOR_KU,10,23,1,11/25/15,female,2,2,BlockProc,SpeakerBlocks,2,1,2,2,25,8,Lo,1,0,8,2,365,9,16Perc_LoF0_2_9_con.wav,2,31,2,65,31,female,161386,KoreanPoliteness_F0_KOR_KU,10,23,1,11/25/15,female,2,2,BlockProc,SpeakerBlocks,2,1,2,2,26,8,Orig,3,0,8,2,158,10,2_10_con.wav,2,40,2,66,40,female,194387,KoreanPoliteness_F0_KOR_KU,10,23,1,11/25/15,female,2,2,BlockProc,SpeakerBlocks,2,1,2,2,27,8,Hi,5,1,8,8,513,2,16Perc_HiF0_2_2_con.wav,2,2,2,67,2,female,231388,KoreanPoliteness_F0_KOR_KU,10,23,1,11/25/15,female,2,2,BlockProc,SpeakerBlocks,2,1,2,2,28,8,MidHi,4,1,8,8,950,7,08Perc_HiF0_2_7_con.wav,2,14,2,68,14,female,203389,KoreanPoliteness_F0_KOR_KU,10,23,1,11/25/15,female,2,2,BlockProc,SpeakerBlocks,2,1,2,2,29,8,Orig,3,1,8,8,350,2,2_2_con.wav,2,34,2,69,34,female,204390,KoreanPoliteness_F0_KOR_KU,10,23,1,11/25/15,female,2,2,BlockProc,SpeakerBlocks,2,1,2,2,30,8,Orig,3,0,8,2,274,4,2_4_con.wav,2,35,2,70,35,female,199391,KoreanPoliteness_F0_KOR_KU,10,23,1,11/25/15,female,2,2,BlockProc,SpeakerBlocks,2,1,2,2,31,8,Hi,5,1,8,8,263,5,16Perc_HiF0_2_5_con.wav,2,4,2,71,4,female,220392,KoreanPoliteness_F0_KOR_KU,10,23,1,11/25/15,female,2,2,BlockProc,SpeakerBlocks,2,1,2,2,32,8,MidHi,4,0,8,2,389,10,08Perc_HiF0_2_10_con.wav,2,16,2,72,16,female,209393,KoreanPoliteness_F0_KOR_KU,10,23,1,11/25/15,female,2,2,BlockProc,SpeakerBlocks,2,1,2,2,33,8,MidLo,2,0,8,2,336,6,08Perc_LoF0_2_6_con.wav,2,21,2,73,21,female,183394,KoreanPoliteness_F0_KOR_KU,10,23,1,11/25/15,female,2,2,BlockProc,SpeakerBlocks,2,1,2,2,34,8,MidLo,2,1,8,8,195,1,08Perc_LoF0_2_1_con.wav,2,17,2,74,17,female,205395,KoreanPoliteness_F0_KOR_KU,10,23,1,11/25/15,female,2,2,BlockProc,SpeakerBlocks,2,1,2,2,35,8,Hi,5,0,8,2,316,4,16Perc_HiF0_2_4_con.wav,2,3,2,75,3,female,231396,KoreanPoliteness_F0_KOR_KU,10,23,1,11/25/15,female,2,2,BlockProc,SpeakerBlocks,2,1,2,2,36,8,MidLo,2,1,8,8,308,5,08Perc_LoF0_2_5_con.wav,2,20,2,76,20,female,174397,KoreanPoliteness_F0_KOR_KU,10,23,1,11/25/15,female,2,2,BlockProc,SpeakerBlocks,2,1,2,2,37,8,Orig,3,1,8,8,246,6,2_6_con.wav,2,37,2,77,37,female,196398,KoreanPoliteness_F0_KOR_KU,10,23,1,11/25/15,female,2,2,BlockProc,SpeakerBlocks,2,1,2,2,38,8,MidLo,2,0,8,2,314,10,08Perc_LoF0_2_10_con.wav,2,24,2,78,24,female,178399,KoreanPoliteness_F0_KOR_KU,10,23,1,11/25/15,female,2,2,BlockProc,SpeakerBlocks,2,1,2,2,39,8,Orig,3,0,8,2,290,9,2_9_con.wav,2,39,2,79,39,female,182400,KoreanPoliteness_F0_KOR_KU,10,23,1,11/25/15,female,2,2,BlockProc,SpeakerBlocks,2,1,2,2,40,8,Lo,1,1,8,8,432,6,16Perc_LoF0_2_6_con.wav,2,29,2,80,29,female,166401,KoreanPoliteness_F0_KOR_KU,10,23,1,11/25/15,female,2,3,BlockProc,SpeakerBlocks,5,1,3,5,1,8,Orig,3,0,8,2,352,2,5_2_con.wav,5,34,3,81,34,female,230402,KoreanPoliteness_F0_KOR_KU,10,23,1,11/25/15,female,2,3,BlockProc,SpeakerBlocks,5,1,3,5,2,8,MidLo,2,0,8,2,278,10,08Perc_LoF0_5_10_con.wav,5,24,3,82,24,female,190403,KoreanPoliteness_F0_KOR_KU,10,23,1,11/25/15,female,2,3,BlockProc,SpeakerBlocks,5,1,3,5,3,8,Orig,3,0,8,2,303,5,5_5_con.wav,5,36,3,83,36,female,220404,KoreanPoliteness_F0_KOR_KU,10,23,1,11/25/15,female,2,3,BlockProc,SpeakerBlocks,5,1,3,5,4,8,MidLo,2,1,8,8,492,1,08Perc_LoF0_5_1_con.wav,5,17,3,84,17,female,199405,KoreanPoliteness_F0_KOR_KU,10,23,1,11/25/15,female,2,3,BlockProc,SpeakerBlocks,5,1,3,5,5,8,Lo,1,1,8,8,871,1,16Perc_LoF0_5_1_con.wav,5,25,3,85,25,female,181406,KoreanPoliteness_F0_KOR_KU,10,23,1,11/25/15,female,2,3,BlockProc,SpeakerBlocks,5,1,3,5,6,8,MidLo,2,1,8,8,797,4,08Perc_LoF0_5_4_con.wav,5,19,3,86,19,female,201407,KoreanPoliteness_F0_KOR_KU,10,23,1,11/25/15,female,2,3,BlockProc,SpeakerBlocks,5,1,3,5,7,8,Orig,3,0,8,2,551,6,5_6_con.wav,5,37,3,87,37,female,221408,KoreanPoliteness_F0_KOR_KU,10,23,1,11/25/15,female,2,3,BlockProc,SpeakerBlocks,5,1,3,5,8,8,Lo,1,0,8,2,299,7,16Perc_LoF0_5_7_con.wav,5,30,3,88,30,female,196409,KoreanPoliteness_F0_KOR_KU,10,23,1,11/25/15,female,2,3,BlockProc,SpeakerBlocks,5,1,3,5,9,8,MidHi,4,1,8,8,829,10,08Perc_HiF0_5_10_con.wav,5,16,3,89,16,female,223410,KoreanPoliteness_F0_KOR_KU,10,23,1,11/25/15,female,2,3,BlockProc,SpeakerBlocks,5,1,3,5,10,8,MidLo,2,0,8,2,466,2,08Perc_LoF0_5_2_con.wav,5,18,3,90,18,female,212411,KoreanPoliteness_F0_KOR_KU,10,23,1,11/25/15,female,2,3,BlockProc,SpeakerBlocks,5,1,3,5,11,8,Hi,5,1,8,8,303,2,16Perc_HiF0_5_2_con.wav,5,2,3,91,2,female,268412,KoreanPoliteness_F0_KOR_KU,10,23,1,11/25/15,female,2,3,BlockProc,SpeakerBlocks,5,1,3,5,12,8,MidHi,4,1,8,8,264,5,08Perc_HiF0_5_5_con.wav,5,12,3,92,12,female,239413,KoreanPoliteness_F0_KOR_KU,10,23,1,11/25/15,female,2,3,BlockProc,SpeakerBlocks,5,1,3,5,13,8,Lo,1,0,8,2,820,6,16Perc_LoF0_5_6_con.wav,5,29,3,93,29,female,186414,KoreanPoliteness_F0_KOR_KU,10,23,1,11/25/15,female,2,3,BlockProc,SpeakerBlocks,5,1,3,5,14,8,Hi,5,1,8,8,401,10,16Perc_HiF0_5_10_con.wav,5,8,3,94,8,female,240415,KoreanPoliteness_F0_KOR_KU,10,23,1,11/25/15,female,2,3,BlockProc,SpeakerBlocks,5,1,3,5,15,8,Hi,5,1,8,8,355,9,16Perc_HiF0_5_9_con.wav,5,7,3,95,7,female,273416,KoreanPoliteness_F0_KOR_KU,10,23,1,11/25/15,female,2,3,BlockProc,SpeakerBlocks,5,1,3,5,16,8,Orig,3,1,8,8,725,4,5_4_con.wav,5,35,3,96,35,female,218417,KoreanPoliteness_F0_KOR_KU,10,23,1,11/25/15,female,2,3,BlockProc,SpeakerBlocks,5,1,3,5,17,8,Lo,1,0,8,2,390,2,16Perc_LoF0_5_2_con.wav,5,26,3,97,26,female,194418,KoreanPoliteness_F0_KOR_KU,10,23,1,11/25/15,female,2,3,BlockProc,SpeakerBlocks,5,1,3,5,18,8,Lo,1,0,8,2,698,10,16Perc_LoF0_5_10_con.wav,5,32,3,98,32,female,174419,KoreanPoliteness_F0_KOR_KU,10,23,1,11/25/15,female,2,3,BlockProc,SpeakerBlocks,5,1,3,5,19,8,Orig,3,1,8,8,496,7,5_7_con.wav,5,38,3,99,38,female,234420,KoreanPoliteness_F0_KOR_KU,10,23,1,11/25/15,female,2,3,BlockProc,SpeakerBlocks,5,1,3,5,20,8,Hi,5,1,8,8,476,6,16Perc_HiF0_5_6_con.wav,5,5,3,100,5,female,257421,KoreanPoliteness_F0_KOR_KU,10,23,1,11/25/15,female,2,3,BlockProc,SpeakerBlocks,5,1,3,5,21,8,MidLo,2,0,8,2,412,5,08Perc_LoF0_5_5_con.wav,5,20,3,101,20,female,203422,KoreanPoliteness_F0_KOR_KU,10,23,1,11/25/15,female,2,3,BlockProc,SpeakerBlocks,5,1,3,5,22,8,Lo,1,0,8,2,973,5,16Perc_LoF0_5_5_con.wav,5,28,3,102,28,female,185423,KoreanPoliteness_F0_KOR_KU,10,23,1,11/25/15,female,2,3,BlockProc,SpeakerBlocks,5,1,3,5,23,8,Lo,1,0,8,2,389,4,16Perc_LoF0_5_4_con.wav,5,27,3,103,27,female,184424,KoreanPoliteness_F0_KOR_KU,10,23,1,11/25/15,female,2,3,BlockProc,SpeakerBlocks,5,1,3,5,24,8,Hi,5,1,8,8,313,7,16Perc_HiF0_5_7_con.wav,5,6,3,104,6,female,272425,KoreanPoliteness_F0_KOR_KU,10,23,1,11/25/15,female,2,3,BlockProc,SpeakerBlocks,5,1,3,5,25,8,Hi,5,1,8,8,308,5,16Perc_HiF0_5_5_con.wav,5,4,3,105,4,female,256426,KoreanPoliteness_F0_KOR_KU,10,23,1,11/25/15,female,2,3,BlockProc,SpeakerBlocks,5,1,3,5,26,8,MidLo,2,0,8,2,770,6,08Perc_LoF0_5_6_con.wav,5,21,3,106,21,female,204427,KoreanPoliteness_F0_KOR_KU,10,23,1,11/25/15,female,2,3,BlockProc,SpeakerBlocks,5,1,3,5,27,8,MidHi,4,0,8,2,543,2,08Perc_HiF0_5_2_con.wav,5,10,3,107,10,female,249428,KoreanPoliteness_F0_KOR_KU,10,23,1,11/25/15,female,2,3,BlockProc,SpeakerBlocks,5,1,3,5,28,8,MidLo,2,0,8,2,588,9,08Perc_LoF0_5_9_con.wav,5,23,3,108,23,female,217429,KoreanPoliteness_F0_KOR_KU,10,23,1,11/25/15,female,2,3,BlockProc,SpeakerBlocks,5,1,3,5,29,8,Orig,3,1,8,8,638,10,5_10_con.wav,5,40,3,109,40,female,207430,KoreanPoliteness_F0_KOR_KU,10,23,1,11/25/15,female,2,3,BlockProc,SpeakerBlocks,5,1,3,5,30,8,Hi,5,1,8,8,428,1,16Perc_HiF0_5_1_con.wav,5,1,3,110,1,female,250431,KoreanPoliteness_F0_KOR_KU,10,23,1,11/25/15,female,2,3,BlockProc,SpeakerBlocks,5,1,3,5,31,8,Hi,5,1,8,8,287,4,16Perc_HiF0_5_4_con.wav,5,3,3,111,3,female,253432,KoreanPoliteness_F0_KOR_KU,10,23,1,11/25/15,female,2,3,BlockProc,SpeakerBlocks,5,1,3,5,32,8,Lo,1,0,8,2,614,9,16Perc_LoF0_5_9_con.wav,5,31,3,112,31,female,197433,KoreanPoliteness_F0_KOR_KU,10,23,1,11/25/15,female,2,3,BlockProc,SpeakerBlocks,5,1,3,5,33,8,MidHi,4,1,8,8,775,1,08Perc_HiF0_5_1_con.wav,5,9,3,113,9,female,233434,KoreanPoliteness_F0_KOR_KU,10,23,1,11/25/15,female,2,3,BlockProc,SpeakerBlocks,5,1,3,5,34,8,MidHi,4,0,8,2,1282,6,08Perc_HiF0_5_6_con.wav,5,13,3,114,13,female,239435,KoreanPoliteness_F0_KOR_KU,10,23,1,11/25/15,female,2,3,BlockProc,SpeakerBlocks,5,1,3,5,35,8,MidHi,4,0,8,2,299,9,08Perc_HiF0_5_9_con.wav,5,15,3,115,15,female,254436,KoreanPoliteness_F0_KOR_KU,10,23,1,11/25/15,female,2,3,BlockProc,SpeakerBlocks,5,1,3,5,36,8,MidLo,2,0,8,2,815,7,08Perc_LoF0_5_7_con.wav,5,22,3,116,22,female,216437,KoreanPoliteness_F0_KOR_KU,10,23,1,11/25/15,female,2,3,BlockProc,SpeakerBlocks,5,1,3,5,37,8,MidHi,4,0,8,2,274,7,08Perc_HiF0_5_7_con.wav,5,14,3,117,14,female,253438,KoreanPoliteness_F0_KOR_KU,10,23,1,11/25/15,female,2,3,BlockProc,SpeakerBlocks,5,1,3,5,38,8,MidHi,4,0,8,2,307,4,08Perc_HiF0_5_4_con.wav,5,11,3,118,11,female,236439,KoreanPoliteness_F0_KOR_KU,10,23,1,11/25/15,female,2,3,BlockProc,SpeakerBlocks,5,1,3,5,39,8,Orig,3,1,8,8,868,9,5_9_con.wav,5,39,3,119,39,female,235440,KoreanPoliteness_F0_KOR_KU,10,23,1,11/25/15,female,2,3,BlockProc,SpeakerBlocks,5,1,3,5,40,8,Orig,3,1,8,8,414,1,5_1_con.wav,5,33,3,120,33,female,216441,KoreanPoliteness_F0_KOR_KU,10,23,1,11/25/15,female,2,4,BlockProc,SpeakerBlocks,1,1,4,1,1,8,MidHi,4,1,8,8,256,5,08Perc_HiF0_1_5_con.wav,1,12,4,121,12,male,99442,KoreanPoliteness_F0_KOR_KU,10,23,1,11/25/15,female,2,4,BlockProc,SpeakerBlocks,1,1,4,1,2,8,MidLo,2,1,8,8,347,2,08Perc_LoF0_1_2_con.wav,1,18,4,122,18,male,90443,KoreanPoliteness_F0_KOR_KU,10,23,1,11/25/15,female,2,4,BlockProc,SpeakerBlocks,1,1,4,1,3,8,MidHi,4,0,8,2,300,6,08Perc_HiF0_1_6_con.wav,1,13,4,123,13,male,97444,KoreanPoliteness_F0_KOR_KU,10,23,1,11/25/15,female,2,4,BlockProc,SpeakerBlocks,1,1,4,1,4,8,Lo,1,0,8,2,773,10,16Perc_LoF0_1_10_con.wav,1,32,4,124,32,male,77445,KoreanPoliteness_F0_KOR_KU,10,23,1,11/25/15,female,2,4,BlockProc,SpeakerBlocks,1,1,4,1,5,8,MidHi,4,1,8,8,420,4,08Perc_HiF0_1_4_con.wav,1,11,4,125,11,male,105446,KoreanPoliteness_F0_KOR_KU,10,23,1,11/25/15,female,2,4,BlockProc,SpeakerBlocks,1,1,4,1,6,8,Orig,3,1,8,8,349,5,1_5_con.wav,1,36,4,126,36,male,91447,KoreanPoliteness_F0_KOR_KU,10,23,1,11/25/15,female,2,4,BlockProc,SpeakerBlocks,1,1,4,1,7,8,Hi,5,1,8,8,414,1,16Perc_HiF0_1_1_con.wav,1,1,4,127,1,male,108448,KoreanPoliteness_F0_KOR_KU,10,23,1,11/25/15,female,2,4,BlockProc,SpeakerBlocks,1,1,4,1,8,8,Orig,3,1,8,8,685,4,1_4_con.wav,1,35,4,128,35,male,97449,KoreanPoliteness_F0_KOR_KU,10,23,1,11/25/15,female,2,4,BlockProc,SpeakerBlocks,1,1,4,1,9,8,Hi,5,1,8,8,281,9,16Perc_HiF0_1_9_con.wav,1,7,4,129,7,male,110450,KoreanPoliteness_F0_KOR_KU,10,23,1,11/25/15,female,2,4,BlockProc,SpeakerBlocks,1,1,4,1,10,8,Hi,5,0,8,2,296,6,16Perc_HiF0_1_6_con.wav,1,5,4,130,5,male,105451,KoreanPoliteness_F0_KOR_KU,10,23,1,11/25/15,female,2,4,BlockProc,SpeakerBlocks,1,1,4,1,11,8,MidHi,4,0,8,2,286,7,08Perc_HiF0_1_7_con.wav,1,14,4,131,14,male,99452,KoreanPoliteness_F0_KOR_KU,10,23,1,11/25/15,female,2,4,BlockProc,SpeakerBlocks,1,1,4,1,12,8,Orig,3,0,8,2,257,6,1_6_con.wav,1,37,4,132,37,male,90453,KoreanPoliteness_F0_KOR_KU,10,23,1,11/25/15,female,2,4,BlockProc,SpeakerBlocks,1,1,4,1,13,8,Lo,1,0,8,2,893,5,16Perc_LoF0_1_5_con.wav,1,28,4,133,28,male,77454,KoreanPoliteness_F0_KOR_KU,10,23,1,11/25/15,female,2,4,BlockProc,SpeakerBlocks,1,1,4,1,14,8,Orig,3,0,8,2,285,1,1_1_con.wav,1,33,4,134,33,male,94455,KoreanPoliteness_F0_KOR_KU,10,23,1,11/25/15,female,2,4,BlockProc,SpeakerBlocks,1,1,4,1,15,8,Hi,5,0,8,2,462,4,16Perc_HiF0_1_4_con.wav,1,3,4,135,3,male,113456,KoreanPoliteness_F0_KOR_KU,10,23,1,11/25/15,female,2,4,BlockProc,SpeakerBlocks,1,1,4,1,16,8,MidHi,4,0,8,2,270,10,08Perc_HiF0_1_10_con.wav,1,16,4,136,16,male,99457,KoreanPoliteness_F0_KOR_KU,10,23,1,11/25/15,female,2,4,BlockProc,SpeakerBlocks,1,1,4,1,17,8,Hi,5,0,8,2,316,2,16Perc_HiF0_1_2_con.wav,1,2,4,137,2,male,107458,KoreanPoliteness_F0_KOR_KU,10,23,1,11/25/15,female,2,4,BlockProc,SpeakerBlocks,1,1,4,1,18,8,Hi,5,0,8,2,347,7,16Perc_HiF0_1_7_con.wav,1,6,4,138,6,male,108459,KoreanPoliteness_F0_KOR_KU,10,23,1,11/25/15,female,2,4,BlockProc,SpeakerBlocks,1,1,4,1,19,8,MidLo,2,0,8,2,374,6,08Perc_LoF0_1_6_con.wav,1,21,4,139,21,male,84460,KoreanPoliteness_F0_KOR_KU,10,23,1,11/25/15,female,2,4,BlockProc,SpeakerBlocks,1,1,4,1,20,8,MidLo,2,0,8,2,587,1,08Perc_LoF0_1_1_con.wav,1,17,4,140,17,male,86461,KoreanPoliteness_F0_KOR_KU,10,23,1,11/25/15,female,2,4,BlockProc,SpeakerBlocks,1,1,4,1,21,8,Lo,1,0,8,2,1450,1,16Perc_LoF0_1_1_con.wav,1,25,4,141,25,male,79462,KoreanPoliteness_F0_KOR_KU,10,23,1,11/25/15,female,2,4,BlockProc,SpeakerBlocks,1,1,4,1,22,8,Hi,5,1,8,8,284,10,16Perc_HiF0_1_10_con.wav,1,8,4,142,8,male,107463,KoreanPoliteness_F0_KOR_KU,10,23,1,11/25/15,female,2,4,BlockProc,SpeakerBlocks,1,1,4,1,23,8,Lo,1,1,8,8,537,4,16Perc_LoF0_1_4_con.wav,1,27,4,143,27,male,82464,KoreanPoliteness_F0_KOR_KU,10,23,1,11/25/15,female,2,4,BlockProc,SpeakerBlocks,1,1,4,1,24,8,Orig,3,1,8,8,748,7,1_7_con.wav,1,38,4,144,38,male,92465,KoreanPoliteness_F0_KOR_KU,10,23,1,11/25/15,female,2,4,BlockProc,SpeakerBlocks,1,1,4,1,25,8,Lo,1,1,8,8,307,9,16Perc_LoF0_1_9_con.wav,1,31,4,145,31,male,80466,KoreanPoliteness_F0_KOR_KU,10,23,1,11/25/15,female,2,4,BlockProc,SpeakerBlocks,1,1,4,1,26,8,Orig,3,1,8,8,304,2,1_2_con.wav,1,34,4,146,34,male,93467,KoreanPoliteness_F0_KOR_KU,10,23,1,11/25/15,female,2,4,BlockProc,SpeakerBlocks,1,1,4,1,27,8,Lo,1,1,8,8,1028,7,16Perc_LoF0_1_7_con.wav,1,30,4,147,30,male,78468,KoreanPoliteness_F0_KOR_KU,10,23,1,11/25/15,female,2,4,BlockProc,SpeakerBlocks,1,1,4,1,28,8,Lo,1,1,8,8,240,2,16Perc_LoF0_1_2_con.wav,1,26,4,148,26,male,83469,KoreanPoliteness_F0_KOR_KU,10,23,1,11/25/15,female,2,4,BlockProc,SpeakerBlocks,1,1,4,1,29,8,MidLo,2,1,8,8,285,4,08Perc_LoF0_1_4_con.wav,1,19,4,149,19,male,90470,KoreanPoliteness_F0_KOR_KU,10,23,1,11/25/15,female,2,4,BlockProc,SpeakerBlocks,1,1,4,1,30,8,MidHi,4,1,8,8,190,9,08Perc_HiF0_1_9_con.wav,1,15,4,150,15,male,103471,KoreanPoliteness_F0_KOR_KU,10,23,1,11/25/15,female,2,4,BlockProc,SpeakerBlocks,1,1,4,1,31,8,MidLo,2,1,8,8,604,7,08Perc_LoF0_1_7_con.wav,1,22,4,151,22,male,85472,KoreanPoliteness_F0_KOR_KU,10,23,1,11/25/15,female,2,4,BlockProc,SpeakerBlocks,1,1,4,1,32,8,MidLo,2,1,8,8,477,9,08Perc_LoF0_1_9_con.wav,1,23,4,152,23,male,88473,KoreanPoliteness_F0_KOR_KU,10,23,1,11/25/15,female,2,4,BlockProc,SpeakerBlocks,1,1,4,1,33,8,MidHi,4,1,8,8,141,1,08Perc_HiF0_1_1_con.wav,1,9,4,153,9,male,100474,KoreanPoliteness_F0_KOR_KU,10,23,1,11/25/15,female,2,4,BlockProc,SpeakerBlocks,1,1,4,1,34,8,MidLo,2,0,8,2,672,10,08Perc_LoF0_1_10_con.wav,1,24,4,154,24,male,86475,KoreanPoliteness_F0_KOR_KU,10,23,1,11/25/15,female,2,4,BlockProc,SpeakerBlocks,1,1,4,1,35,8,Orig,3,0,8,2,1497,10,1_10_con.wav,1,40,4,155,40,male,93476,KoreanPoliteness_F0_KOR_KU,10,23,1,11/25/15,female,2,4,BlockProc,SpeakerBlocks,1,1,4,1,36,8,Orig,3,0,8,2,444,9,1_9_con.wav,1,39,4,156,39,male,95477,KoreanPoliteness_F0_KOR_KU,10,23,1,11/25/15,female,2,4,BlockProc,SpeakerBlocks,1,1,4,1,37,8,Hi,5,1,8,8,409,5,16Perc_HiF0_1_5_con.wav,1,4,4,157,4,male,106478,KoreanPoliteness_F0_KOR_KU,10,23,1,11/25/15,female,2,4,BlockProc,SpeakerBlocks,1,1,4,1,38,8,MidHi,4,1,8,8,782,2,08Perc_HiF0_1_2_con.wav,1,10,4,158,10,male,100479,KoreanPoliteness_F0_KOR_KU,10,23,1,11/25/15,female,2,4,BlockProc,SpeakerBlocks,1,1,4,1,39,8,MidLo,2,0,8,2,557,5,08Perc_LoF0_1_5_con.wav,1,20,4,159,20,male,85480,KoreanPoliteness_F0_KOR_KU,10,23,1,11/25/15,female,2,4,BlockProc,SpeakerBlocks,1,1,4,1,40,8,Lo,1,0,8,2,558,6,16Perc_LoF0_1_6_con.wav,1,29,4,160,29,male,77481,KoreanPoliteness_F0_KOR_KU,10,23,1,11/25/15,female,2,5,BlockProc,SpeakerBlocks,6,1,5,6,1,8,Orig,3,0,8,2,540,9,6_9_con.wav,6,39,5,161,39,female,190482,KoreanPoliteness_F0_KOR_KU,10,23,1,11/25/15,female,2,5,BlockProc,SpeakerBlocks,6,1,5,6,2,8,Orig,3,1,8,8,400,4,6_4_con.wav,6,35,5,162,35,female,189483,KoreanPoliteness_F0_KOR_KU,10,23,1,11/25/15,female,2,5,BlockProc,SpeakerBlocks,6,1,5,6,3,8,MidHi,4,1,8,8,536,7,08Perc_HiF0_6_7_con.wav,6,14,5,163,14,female,200484,KoreanPoliteness_F0_KOR_KU,10,23,1,11/25/15,female,2,5,BlockProc,SpeakerBlocks,6,1,5,6,4,8,Lo,1,1,8,8,657,1,16Perc_LoF0_6_1_con.wav,6,25,5,164,25,female,164485,KoreanPoliteness_F0_KOR_KU,10,23,1,11/25/15,female,2,5,BlockProc,SpeakerBlocks,6,1,5,6,5,8,Hi,5,1,8,8,434,4,16Perc_HiF0_6_4_con.wav,6,3,5,165,3,female,220486,KoreanPoliteness_F0_KOR_KU,10,23,1,11/25/15,female,2,5,BlockProc,SpeakerBlocks,6,1,5,6,6,8,Hi,5,1,8,8,492,1,16Perc_HiF0_6_1_con.wav,6,1,5,166,1,female,226487,KoreanPoliteness_F0_KOR_KU,10,23,1,11/25/15,female,2,5,BlockProc,SpeakerBlocks,6,1,5,6,7,8,Orig,3,1,8,8,346,1,6_1_con.wav,6,33,5,167,33,female,195488,KoreanPoliteness_F0_KOR_KU,10,23,1,11/25/15,female,2,5,BlockProc,SpeakerBlocks,6,1,5,6,8,8,MidHi,4,1,8,8,640,1,08Perc_HiF0_6_1_con.wav,6,9,5,168,9,female,211489,KoreanPoliteness_F0_KOR_KU,10,23,1,11/25/15,female,2,5,BlockProc,SpeakerBlocks,6,1,5,6,9,8,MidLo,2,0,8,2,427,2,08Perc_LoF0_6_2_con.wav,6,18,5,169,18,female,174490,KoreanPoliteness_F0_KOR_KU,10,23,1,11/25/15,female,2,5,BlockProc,SpeakerBlocks,6,1,5,6,10,8,Lo,1,0,8,2,436,7,16Perc_LoF0_6_7_con.wav,6,30,5,170,30,female,155491,KoreanPoliteness_F0_KOR_KU,10,23,1,11/25/15,female,2,5,BlockProc,SpeakerBlocks,6,1,5,6,11,8,Hi,5,0,8,2,241,10,16Perc_HiF0_6_10_con.wav,6,8,5,171,8,female,224492,KoreanPoliteness_F0_KOR_KU,10,23,1,11/25/15,female,2,5,BlockProc,SpeakerBlocks,6,1,5,6,12,8,MidHi,4,1,8,8,443,2,08Perc_HiF0_6_2_con.wav,6,10,5,172,10,female,204493,KoreanPoliteness_F0_KOR_KU,10,23,1,11/25/15,female,2,5,BlockProc,SpeakerBlocks,6,1,5,6,13,8,Orig,3,0,8,2,691,5,6_5_con.wav,6,36,5,173,36,female,198494,KoreanPoliteness_F0_KOR_KU,10,23,1,11/25/15,female,2,5,BlockProc,SpeakerBlocks,6,1,5,6,14,8,Orig,3,0,8,2,385,7,6_7_con.wav,6,38,5,174,38,female,186495,KoreanPoliteness_F0_KOR_KU,10,23,1,11/25/15,female,2,5,BlockProc,SpeakerBlocks,6,1,5,6,15,8,MidLo,2,0,8,2,278,10,08Perc_LoF0_6_10_con.wav,6,24,5,175,24,female,178496,KoreanPoliteness_F0_KOR_KU,10,23,1,11/25/15,female,2,5,BlockProc,SpeakerBlocks,6,1,5,6,16,8,MidHi,4,1,8,8,285,5,08Perc_HiF0_6_5_con.wav,6,12,5,176,12,female,214497,KoreanPoliteness_F0_KOR_KU,10,23,1,11/25/15,female,2,5,BlockProc,SpeakerBlocks,6,1,5,6,17,8,Lo,1,0,8,2,249,10,16Perc_LoF0_6_10_con.wav,6,32,5,177,32,female,162498,KoreanPoliteness_F0_KOR_KU,10,23,1,11/25/15,female,2,5,BlockProc,SpeakerBlocks,6,1,5,6,18,8,Hi,5,1,8,8,388,9,16Perc_HiF0_6_9_con.wav,6,7,5,178,7,female,220499,KoreanPoliteness_F0_KOR_KU,10,23,1,11/25/15,female,2,5,BlockProc,SpeakerBlocks,6,1,5,6,19,8,MidLo,2,1,8,8,814,1,08Perc_LoF0_6_1_con.wav,6,17,5,179,17,female,179500,KoreanPoliteness_F0_KOR_KU,10,23,1,11/25/15,female,2,5,BlockProc,SpeakerBlocks,6,1,5,6,20,8,MidLo,2,1,8,8,407,4,08Perc_LoF0_6_4_con.wav,6,19,5,180,19,female,174501,KoreanPoliteness_F0_KOR_KU,10,23,1,11/25/15,female,2,5,BlockProc,SpeakerBlocks,6,1,5,6,21,8,Hi,5,0,8,2,454,7,16Perc_HiF0_6_7_con.wav,6,6,5,181,6,female,215502,KoreanPoliteness_F0_KOR_KU,10,23,1,11/25/15,female,2,5,BlockProc,SpeakerBlocks,6,1,5,6,22,8,Hi,5,0,8,2,292,5,16Perc_HiF0_6_5_con.wav,6,4,5,182,4,female,229503,KoreanPoliteness_F0_KOR_KU,10,23,1,11/25/15,female,2,5,BlockProc,SpeakerBlocks,6,1,5,6,23,8,MidHi,4,1,8,8,300,4,08Perc_HiF0_6_4_con.wav,6,11,5,183,11,female,205504,KoreanPoliteness_F0_KOR_KU,10,23,1,11/25/15,female,2,5,BlockProc,SpeakerBlocks,6,1,5,6,24,8,MidLo,2,0,8,2,307,5,08Perc_LoF0_6_5_con.wav,6,20,5,184,20,female,182505,KoreanPoliteness_F0_KOR_KU,10,23,1,11/25/15,female,2,5,BlockProc,SpeakerBlocks,6,1,5,6,25,8,MidLo,2,0,8,2,479,6,08Perc_LoF0_6_6_con.wav,6,21,5,185,21,female,180506,KoreanPoliteness_F0_KOR_KU,10,23,1,11/25/15,female,2,5,BlockProc,SpeakerBlocks,6,1,5,6,26,8,MidLo,2,1,8,8,373,9,08Perc_LoF0_6_9_con.wav,6,23,5,186,23,female,174507,KoreanPoliteness_F0_KOR_KU,10,23,1,11/25/15,female,2,5,BlockProc,SpeakerBlocks,6,1,5,6,27,8,MidHi,4,0,8,2,258,10,08Perc_HiF0_6_10_con.wav,6,16,5,187,16,female,209508,KoreanPoliteness_F0_KOR_KU,10,23,1,11/25/15,female,2,5,BlockProc,SpeakerBlocks,6,1,5,6,28,8,Orig,3,0,8,2,266,10,6_10_con.wav,6,40,5,188,40,female,193509,KoreanPoliteness_F0_KOR_KU,10,23,1,11/25/15,female,2,5,BlockProc,SpeakerBlocks,6,1,5,6,29,8,Lo,1,1,8,8,493,2,16Perc_LoF0_6_2_con.wav,6,26,5,189,26,female,158510,KoreanPoliteness_F0_KOR_KU,10,23,1,11/25/15,female,2,5,BlockProc,SpeakerBlocks,6,1,5,6,30,8,Lo,1,1,8,8,776,6,16Perc_LoF0_6_6_con.wav,6,29,5,190,29,female,164511,KoreanPoliteness_F0_KOR_KU,10,23,1,11/25/15,female,2,5,BlockProc,SpeakerBlocks,6,1,5,6,31,8,Orig,3,0,8,2,352,6,6_6_con.wav,6,37,5,191,37,female,195512,KoreanPoliteness_F0_KOR_KU,10,23,1,11/25/15,female,2,5,BlockProc,SpeakerBlocks,6,1,5,6,32,8,Orig,3,1,8,8,562,2,6_2_con.wav,6,34,5,192,34,female,188513,KoreanPoliteness_F0_KOR_KU,10,23,1,11/25/15,female,2,5,BlockProc,SpeakerBlocks,6,1,5,6,33,8,Hi,5,0,8,2,231,6,16Perc_HiF0_6_6_con.wav,6,5,5,193,5,female,227514,KoreanPoliteness_F0_KOR_KU,10,23,1,11/25/15,female,2,5,BlockProc,SpeakerBlocks,6,1,5,6,34,8,MidLo,2,1,8,8,266,7,08Perc_LoF0_6_7_con.wav,6,22,5,194,22,female,171515,KoreanPoliteness_F0_KOR_KU,10,23,1,11/25/15,female,2,5,BlockProc,SpeakerBlocks,6,1,5,6,35,8,Lo,1,1,8,8,298,9,16Perc_LoF0_6_9_con.wav,6,31,5,195,31,female,159516,KoreanPoliteness_F0_KOR_KU,10,23,1,11/25/15,female,2,5,BlockProc,SpeakerBlocks,6,1,5,6,36,8,MidHi,4,0,8,2,281,6,08Perc_HiF0_6_6_con.wav,6,13,5,196,13,female,211517,KoreanPoliteness_F0_KOR_KU,10,23,1,11/25/15,female,2,5,BlockProc,SpeakerBlocks,6,1,5,6,37,8,MidHi,4,1,8,8,645,9,08Perc_HiF0_6_9_con.wav,6,15,5,197,15,female,205518,KoreanPoliteness_F0_KOR_KU,10,23,1,11/25/15,female,2,5,BlockProc,SpeakerBlocks,6,1,5,6,38,8,Lo,1,1,8,8,292,4,16Perc_LoF0_6_4_con.wav,6,27,5,198,27,female,159519,KoreanPoliteness_F0_KOR_KU,10,23,1,11/25/15,female,2,5,BlockProc,SpeakerBlocks,6,1,5,6,39,8,Hi,5,1,8,8,426,2,16Perc_HiF0_6_2_con.wav,6,2,5,199,2,female,219520,KoreanPoliteness_F0_KOR_KU,10,23,1,11/25/15,female,2,5,BlockProc,SpeakerBlocks,6,1,5,6,40,8,Lo,1,0,8,2,303,5,16Perc_LoF0_6_5_con.wav,6,28,5,200,28,female,166521,KoreanPoliteness_F0_KOR_KU,10,23,1,11/25/15,female,2,6,BlockProc,SpeakerBlocks,7,1,6,7,1,8,Lo,1,0,8,2,526,7,16Perc_LoF0_7_7_con.wav,7,30,6,201,30,male,100522,KoreanPoliteness_F0_KOR_KU,10,23,1,11/25/15,female,2,6,BlockProc,SpeakerBlocks,7,1,6,7,2,8,MidHi,4,0,8,2,668,1,08Perc_HiF0_7_1_con.wav,7,9,6,202,9,male,122523,KoreanPoliteness_F0_KOR_KU,10,23,1,11/25/15,female,2,6,BlockProc,SpeakerBlocks,7,1,6,7,3,8,MidLo,2,0,8,2,642,5,08Perc_LoF0_7_5_con.wav,7,20,6,203,20,male,99524,KoreanPoliteness_F0_KOR_KU,10,23,1,11/25/15,female,2,6,BlockProc,SpeakerBlocks,7,1,6,7,4,8,Lo,1,0,8,2,269,9,16Perc_LoF0_7_9_con.wav,7,31,6,204,31,male,95525,KoreanPoliteness_F0_KOR_KU,10,23,1,11/25/15,female,2,6,BlockProc,SpeakerBlocks,7,1,6,7,5,8,Hi,5,0,8,2,760,4,16Perc_HiF0_7_4_con.wav,7,3,6,205,3,male,135526,KoreanPoliteness_F0_KOR_KU,10,23,1,11/25/15,female,2,6,BlockProc,SpeakerBlocks,7,1,6,7,6,8,Lo,1,0,8,2,583,6,16Perc_LoF0_7_6_con.wav,7,29,6,206,29,male,91527,KoreanPoliteness_F0_KOR_KU,10,23,1,11/25/15,female,2,6,BlockProc,SpeakerBlocks,7,1,6,7,7,8,Orig,3,0,8,2,315,9,7_9_con.wav,7,39,6,207,39,male,113528,KoreanPoliteness_F0_KOR_KU,10,23,1,11/25/15,female,2,6,BlockProc,SpeakerBlocks,7,1,6,7,8,8,MidHi,4,0,8,2,251,5,08Perc_HiF0_7_5_con.wav,7,12,6,208,12,male,116529,KoreanPoliteness_F0_KOR_KU,10,23,1,11/25/15,female,2,6,BlockProc,SpeakerBlocks,7,1,6,7,9,8,Orig,3,0,8,2,695,2,7_2_con.wav,7,34,6,209,34,male,115530,KoreanPoliteness_F0_KOR_KU,10,23,1,11/25/15,female,2,6,BlockProc,SpeakerBlocks,7,1,6,7,10,8,Orig,3,0,8,2,444,4,7_4_con.wav,7,35,6,210,35,male,112531,KoreanPoliteness_F0_KOR_KU,10,23,1,11/25/15,female,2,6,BlockProc,SpeakerBlocks,7,1,6,7,11,8,MidLo,2,0,8,2,369,10,08Perc_LoF0_7_10_con.wav,7,24,6,211,24,male,101532,KoreanPoliteness_F0_KOR_KU,10,23,1,11/25/15,female,2,6,BlockProc,SpeakerBlocks,7,1,6,7,12,8,Hi,5,0,8,2,482,2,16Perc_HiF0_7_2_con.wav,7,2,6,212,2,male,134533,KoreanPoliteness_F0_KOR_KU,10,23,1,11/25/15,female,2,6,BlockProc,SpeakerBlocks,7,1,6,7,13,8,Lo,1,1,8,8,650,5,16Perc_LoF0_7_5_con.wav,7,28,6,213,28,male,91534,KoreanPoliteness_F0_KOR_KU,10,23,1,11/25/15,female,2,6,BlockProc,SpeakerBlocks,7,1,6,7,14,8,Hi,5,0,8,2,448,9,16Perc_HiF0_7_9_con.wav,7,7,6,214,7,male,131535,KoreanPoliteness_F0_KOR_KU,10,23,1,11/25/15,female,2,6,BlockProc,SpeakerBlocks,7,1,6,7,15,8,Lo,1,0,8,2,477,2,16Perc_LoF0_7_2_con.wav,7,26,6,215,26,male,97536,KoreanPoliteness_F0_KOR_KU,10,23,1,11/25/15,female,2,6,BlockProc,SpeakerBlocks,7,1,6,7,16,8,Hi,5,0,8,2,701,5,16Perc_HiF0_7_5_con.wav,7,4,6,216,4,male,125537,KoreanPoliteness_F0_KOR_KU,10,23,1,11/25/15,female,2,6,BlockProc,SpeakerBlocks,7,1,6,7,17,8,Lo,1,0,8,2,261,1,16Perc_LoF0_7_1_con.wav,7,25,6,217,25,male,95538,KoreanPoliteness_F0_KOR_KU,10,23,1,11/25/15,female,2,6,BlockProc,SpeakerBlocks,7,1,6,7,18,8,Hi,5,0,8,2,292,6,16Perc_HiF0_7_6_con.wav,7,5,6,218,5,male,124539,KoreanPoliteness_F0_KOR_KU,10,23,1,11/25/15,female,2,6,BlockProc,SpeakerBlocks,7,1,6,7,19,8,Orig,3,0,8,2,362,6,7_6_con.wav,7,37,6,219,37,male,107540,KoreanPoliteness_F0_KOR_KU,10,23,1,11/25/15,female,2,6,BlockProc,SpeakerBlocks,7,1,6,7,20,8,Orig,3,0,8,2,359,10,7_10_con.wav,7,40,6,220,40,male,110541,KoreanPoliteness_F0_KOR_KU,10,23,1,11/25/15,female,2,6,BlockProc,SpeakerBlocks,7,1,6,7,21,8,MidLo,2,0,8,2,623,1,08Perc_LoF0_7_1_con.wav,7,17,6,221,17,male,103542,KoreanPoliteness_F0_KOR_KU,10,23,1,11/25/15,female,2,6,BlockProc,SpeakerBlocks,7,1,6,7,22,8,MidLo,2,0,8,2,555,7,08Perc_LoF0_7_7_con.wav,7,22,6,222,22,male,109543,KoreanPoliteness_F0_KOR_KU,10,23,1,11/25/15,female,2,6,BlockProc,SpeakerBlocks,7,1,6,7,23,8,MidHi,4,0,8,2,248,6,08Perc_HiF0_7_6_con.wav,7,13,6,223,13,male,116544,KoreanPoliteness_F0_KOR_KU,10,23,1,11/25/15,female,2,6,BlockProc,SpeakerBlocks,7,1,6,7,24,8,MidLo,2,0,8,2,379,2,08Perc_LoF0_7_2_con.wav,7,18,6,224,18,male,106545,KoreanPoliteness_F0_KOR_KU,10,23,1,11/25/15,female,2,6,BlockProc,SpeakerBlocks,7,1,6,7,25,8,MidHi,4,0,8,2,521,2,08Perc_HiF0_7_2_con.wav,7,10,6,225,10,male,124546,KoreanPoliteness_F0_KOR_KU,10,23,1,11/25/15,female,2,6,BlockProc,SpeakerBlocks,7,1,6,7,26,8,MidHi,4,1,8,8,583,4,08Perc_HiF0_7_4_con.wav,7,11,6,226,11,male,123547,KoreanPoliteness_F0_KOR_KU,10,23,1,11/25/15,female,2,6,BlockProc,SpeakerBlocks,7,1,6,7,27,8,Hi,5,0,8,2,508,10,16Perc_HiF0_7_10_con.wav,7,8,6,227,8,male,128548,KoreanPoliteness_F0_KOR_KU,10,23,1,11/25/15,female,2,6,BlockProc,SpeakerBlocks,7,1,6,7,28,8,Lo,1,0,8,2,569,10,16Perc_LoF0_7_10_con.wav,7,32,6,228,32,male,92549,KoreanPoliteness_F0_KOR_KU,10,23,1,11/25/15,female,2,6,BlockProc,SpeakerBlocks,7,1,6,7,29,8,Lo,1,1,8,8,1107,4,16Perc_LoF0_7_4_con.wav,7,27,6,229,27,male,98550,KoreanPoliteness_F0_KOR_KU,10,23,1,11/25/15,female,2,6,BlockProc,SpeakerBlocks,7,1,6,7,30,8,Orig,3,1,8,8,397,5,7_5_con.wav,7,36,6,230,36,male,108551,KoreanPoliteness_F0_KOR_KU,10,23,1,11/25/15,female,2,6,BlockProc,SpeakerBlocks,7,1,6,7,31,8,Orig,3,1,8,8,600,7,7_7_con.wav,7,38,6,231,38,male,119552,KoreanPoliteness_F0_KOR_KU,10,23,1,11/25/15,female,2,6,BlockProc,SpeakerBlocks,7,1,6,7,32,8,Hi,5,1,8,8,303,7,16Perc_HiF0_7_7_con.wav,7,6,6,232,6,male,138553,KoreanPoliteness_F0_KOR_KU,10,23,1,11/25/15,female,2,6,BlockProc,SpeakerBlocks,7,1,6,7,33,8,MidLo,2,1,8,8,823,4,08Perc_LoF0_7_4_con.wav,7,19,6,233,19,male,107554,KoreanPoliteness_F0_KOR_KU,10,23,1,11/25/15,female,2,6,BlockProc,SpeakerBlocks,7,1,6,7,34,8,MidHi,4,0,8,2,756,7,08Perc_HiF0_7_7_con.wav,7,14,6,234,14,male,129555,KoreanPoliteness_F0_KOR_KU,10,23,1,11/25/15,female,2,6,BlockProc,SpeakerBlocks,7,1,6,7,35,8,Hi,5,1,8,8,864,1,16Perc_HiF0_7_1_con.wav,7,1,6,235,1,male,131556,KoreanPoliteness_F0_KOR_KU,10,23,1,11/25/15,female,2,6,BlockProc,SpeakerBlocks,7,1,6,7,36,8,MidLo,2,1,8,8,592,9,08Perc_LoF0_7_9_con.wav,7,23,6,236,23,male,104557,KoreanPoliteness_F0_KOR_KU,10,23,1,11/25/15,female,2,6,BlockProc,SpeakerBlocks,7,1,6,7,37,8,MidLo,2,1,8,8,577,6,08Perc_LoF0_7_6_con.wav,7,21,6,237,21,male,99558,KoreanPoliteness_F0_KOR_KU,10,23,1,11/25/15,female,2,6,BlockProc,SpeakerBlocks,7,1,6,7,38,8,MidHi,4,1,8,8,420,10,08Perc_HiF0_7_10_con.wav,7,16,6,238,16,male,119559,KoreanPoliteness_F0_KOR_KU,10,23,1,11/25/15,female,2,6,BlockProc,SpeakerBlocks,7,1,6,7,39,8,Orig,3,0,8,2,643,1,7_1_con.wav,7,33,6,239,33,male,113560,KoreanPoliteness_F0_KOR_KU,10,23,1,11/25/15,female,2,6,BlockProc,SpeakerBlocks,7,1,6,7,40,8,MidHi,4,1,8,8,616,9,08Perc_HiF0_7_9_con.wav,7,15,6,240,15,male,122561,KoreanPoliteness_F0_KOR_KU,10,23,1,11/25/15,female,2,7,BlockProc,SpeakerBlocks,4,1,7,4,1,8,MidHi,4,1,8,8,354,5,08Perc_HiF0_4_5_con.wav,4,12,7,241,12,female,194562,KoreanPoliteness_F0_KOR_KU,10,23,1,11/25/15,female,2,7,BlockProc,SpeakerBlocks,4,1,7,4,2,8,MidHi,4,1,8,8,286,6,08Perc_HiF0_4_6_con.wav,4,13,7,242,13,female,189563,KoreanPoliteness_F0_KOR_KU,10,23,1,11/25/15,female,2,7,BlockProc,SpeakerBlocks,4,1,7,4,3,8,MidHi,4,1,8,8,247,2,08Perc_HiF0_4_2_con.wav,4,10,7,243,10,female,204564,KoreanPoliteness_F0_KOR_KU,10,23,1,11/25/15,female,2,7,BlockProc,SpeakerBlocks,4,1,7,4,4,8,Lo,1,1,8,8,322,5,16Perc_LoF0_4_5_con.wav,4,28,7,244,28,female,151565,KoreanPoliteness_F0_KOR_KU,10,23,1,11/25/15,female,2,7,BlockProc,SpeakerBlocks,4,1,7,4,5,8,MidHi,4,0,8,2,238,10,08Perc_HiF0_4_10_con.wav,4,16,7,245,16,female,204566,KoreanPoliteness_F0_KOR_KU,10,23,1,11/25/15,female,2,7,BlockProc,SpeakerBlocks,4,1,7,4,6,8,MidHi,4,0,8,2,120,7,08Perc_HiF0_4_7_con.wav,4,14,7,246,14,female,197567,KoreanPoliteness_F0_KOR_KU,10,23,1,11/25/15,female,2,7,BlockProc,SpeakerBlocks,4,1,7,4,7,8,Orig,3,0,8,2,269,10,4_10_con.wav,4,40,7,247,40,female,189568,KoreanPoliteness_F0_KOR_KU,10,23,1,11/25/15,female,2,7,BlockProc,SpeakerBlocks,4,1,7,4,8,8,MidHi,4,0,8,2,812,9,08Perc_HiF0_4_9_con.wav,4,15,7,248,15,female,210569,KoreanPoliteness_F0_KOR_KU,10,23,1,11/25/15,female,2,7,BlockProc,SpeakerBlocks,4,1,7,4,9,8,MidHi,4,1,8,8,573,4,08Perc_HiF0_4_4_con.wav,4,11,7,249,11,female,208570,KoreanPoliteness_F0_KOR_KU,10,23,1,11/25/15,female,2,7,BlockProc,SpeakerBlocks,4,1,7,4,10,8,Lo,1,0,8,2,739,1,16Perc_LoF0_4_1_con.wav,4,25,7,250,25,female,165571,KoreanPoliteness_F0_KOR_KU,10,23,1,11/25/15,female,2,7,BlockProc,SpeakerBlocks,4,1,7,4,11,8,Orig,3,0,8,2,275,4,4_4_con.wav,4,35,7,251,35,female,192572,KoreanPoliteness_F0_KOR_KU,10,23,1,11/25/15,female,2,7,BlockProc,SpeakerBlocks,4,1,7,4,12,8,Orig,3,1,8,8,444,1,4_1_con.wav,4,33,7,252,33,female,196573,KoreanPoliteness_F0_KOR_KU,10,23,1,11/25/15,female,2,7,BlockProc,SpeakerBlocks,4,1,7,4,13,8,Hi,5,1,8,8,275,6,16Perc_HiF0_4_6_con.wav,4,5,7,253,5,female,203574,KoreanPoliteness_F0_KOR_KU,10,23,1,11/25/15,female,2,7,BlockProc,SpeakerBlocks,4,1,7,4,14,8,Orig,3,1,8,8,257,6,4_6_con.wav,4,37,7,254,37,female,175575,KoreanPoliteness_F0_KOR_KU,10,23,1,11/25/15,female,2,7,BlockProc,SpeakerBlocks,4,1,7,4,15,8,Lo,1,1,8,8,292,7,16Perc_LoF0_4_7_con.wav,4,30,7,255,30,female,157576,KoreanPoliteness_F0_KOR_KU,10,23,1,11/25/15,female,2,7,BlockProc,SpeakerBlocks,4,1,7,4,16,8,Orig,3,0,8,2,406,2,4_2_con.wav,4,34,7,256,34,female,188577,KoreanPoliteness_F0_KOR_KU,10,23,1,11/25/15,female,2,7,BlockProc,SpeakerBlocks,4,1,7,4,17,8,Hi,5,0,8,2,317,5,16Perc_HiF0_4_5_con.wav,4,4,7,257,4,female,209578,KoreanPoliteness_F0_KOR_KU,10,23,1,11/25/15,female,2,7,BlockProc,SpeakerBlocks,4,1,7,4,18,8,Hi,5,1,8,8,517,2,16Perc_HiF0_4_2_con.wav,4,2,7,258,2,female,219579,KoreanPoliteness_F0_KOR_KU,10,23,1,11/25/15,female,2,7,BlockProc,SpeakerBlocks,4,1,7,4,19,8,MidLo,2,1,8,8,534,4,08Perc_LoF0_4_4_con.wav,4,19,7,259,19,female,177580,KoreanPoliteness_F0_KOR_KU,10,23,1,11/25/15,female,2,7,BlockProc,SpeakerBlocks,4,1,7,4,20,8,MidLo,2,1,8,8,496,1,08Perc_LoF0_4_1_con.wav,4,17,7,260,17,female,180581,KoreanPoliteness_F0_KOR_KU,10,23,1,11/25/15,female,2,7,BlockProc,SpeakerBlocks,4,1,7,4,21,8,Lo,1,0,8,2,636,2,16Perc_LoF0_4_2_con.wav,4,26,7,261,26,female,158582,KoreanPoliteness_F0_KOR_KU,10,23,1,11/25/15,female,2,7,BlockProc,SpeakerBlocks,4,1,7,4,22,8,MidLo,2,0,8,2,477,2,08Perc_LoF0_4_2_con.wav,4,18,7,262,18,female,173583,KoreanPoliteness_F0_KOR_KU,10,23,1,11/25/15,female,2,7,BlockProc,SpeakerBlocks,4,1,7,4,23,8,MidLo,2,0,8,2,464,5,08Perc_LoF0_4_5_con.wav,4,20,7,263,20,female,165584,KoreanPoliteness_F0_KOR_KU,10,23,1,11/25/15,female,2,7,BlockProc,SpeakerBlocks,4,1,7,4,24,8,Hi,5,0,8,2,275,7,16Perc_HiF0_4_7_con.wav,4,6,7,264,6,female,212585,KoreanPoliteness_F0_KOR_KU,10,23,1,11/25/15,female,2,7,BlockProc,SpeakerBlocks,4,1,7,4,25,8,Hi,5,1,8,8,488,1,16Perc_HiF0_4_1_con.wav,4,1,7,265,1,female,228586,KoreanPoliteness_F0_KOR_KU,10,23,1,11/25/15,female,2,7,BlockProc,SpeakerBlocks,4,1,7,4,26,8,Orig,3,0,8,2,647,9,4_9_con.wav,4,39,7,266,39,female,194587,KoreanPoliteness_F0_KOR_KU,10,23,1,11/25/15,female,2,7,BlockProc,SpeakerBlocks,4,1,7,4,27,8,MidHi,4,1,8,8,362,1,08Perc_HiF0_4_1_con.wav,4,9,7,267,9,female,213588,KoreanPoliteness_F0_KOR_KU,10,23,1,11/25/15,female,2,7,BlockProc,SpeakerBlocks,4,1,7,4,28,8,Lo,1,1,8,8,324,9,16Perc_LoF0_4_9_con.wav,4,31,7,268,31,female,163589,KoreanPoliteness_F0_KOR_KU,10,23,1,11/25/15,female,2,7,BlockProc,SpeakerBlocks,4,1,7,4,29,8,Hi,5,0,8,2,288,9,16Perc_HiF0_4_9_con.wav,4,7,7,269,7,female,225590,KoreanPoliteness_F0_KOR_KU,10,23,1,11/25/15,female,2,7,BlockProc,SpeakerBlocks,4,1,7,4,30,8,MidLo,2,1,8,8,427,7,08Perc_LoF0_4_7_con.wav,4,22,7,270,22,female,168591,KoreanPoliteness_F0_KOR_KU,10,23,1,11/25/15,female,2,7,BlockProc,SpeakerBlocks,4,1,7,4,31,8,MidLo,2,1,8,8,441,9,08Perc_LoF0_4_9_con.wav,4,23,7,271,23,female,179592,KoreanPoliteness_F0_KOR_KU,10,23,1,11/25/15,female,2,7,BlockProc,SpeakerBlocks,4,1,7,4,32,8,Orig,3,0,8,2,439,5,4_5_con.wav,4,36,7,272,36,female,179593,KoreanPoliteness_F0_KOR_KU,10,23,1,11/25/15,female,2,7,BlockProc,SpeakerBlocks,4,1,7,4,33,8,Hi,5,1,8,8,310,10,16Perc_HiF0_4_10_con.wav,4,8,7,273,8,female,219594,KoreanPoliteness_F0_KOR_KU,10,23,1,11/25/15,female,2,7,BlockProc,SpeakerBlocks,4,1,7,4,34,8,Hi,5,1,8,8,321,4,16Perc_HiF0_4_4_con.wav,4,3,7,274,3,female,223595,KoreanPoliteness_F0_KOR_KU,10,23,1,11/25/15,female,2,7,BlockProc,SpeakerBlocks,4,1,7,4,35,8,MidLo,2,0,8,2,405,6,08Perc_LoF0_4_6_con.wav,4,21,7,275,21,female,161596,KoreanPoliteness_F0_KOR_KU,10,23,1,11/25/15,female,2,7,BlockProc,SpeakerBlocks,4,1,7,4,36,8,Lo,1,0,8,2,805,10,16Perc_LoF0_4_10_con.wav,4,32,7,276,32,female,159597,KoreanPoliteness_F0_KOR_KU,10,23,1,11/25/15,female,2,7,BlockProc,SpeakerBlocks,4,1,7,4,37,8,Lo,1,0,8,2,545,4,16Perc_LoF0_4_4_con.wav,4,27,7,277,27,female,162598,KoreanPoliteness_F0_KOR_KU,10,23,1,11/25/15,female,2,7,BlockProc,SpeakerBlocks,4,1,7,4,38,8,Orig,3,1,8,8,450,7,4_7_con.wav,4,38,7,278,38,female,183599,KoreanPoliteness_F0_KOR_KU,10,23,1,11/25/15,female,2,7,BlockProc,SpeakerBlocks,4,1,7,4,39,8,MidLo,2,1,8,8,259,10,08Perc_LoF0_4_10_con.wav,4,24,7,279,24,female,174600,KoreanPoliteness_F0_KOR_KU,10,23,1,11/25/15,female,2,7,BlockProc,SpeakerBlocks,4,1,7,4,40,8,Lo,1,0,8,2,617,6,16Perc_LoF0_4_6_con.wav,4,29,7,280,29,female,147601,KoreanPoliteness_F0_KOR_KU,10,23,1,11/25/15,female,2,8,BlockProc,SpeakerBlocks,8,1,8,8,1,8,Orig,3,0,8,2,617,1,8_1_con.wav,8,33,8,281,33,male,114602,KoreanPoliteness_F0_KOR_KU,10,23,1,11/25/15,female,2,8,BlockProc,SpeakerBlocks,8,1,8,8,2,8,Lo,1,0,8,2,324,2,16Perc_LoF0_8_2_con.wav,8,26,8,282,26,male,103603,KoreanPoliteness_F0_KOR_KU,10,23,1,11/25/15,female,2,8,BlockProc,SpeakerBlocks,8,1,8,8,3,8,MidLo,2,0,8,2,295,5,08Perc_LoF0_8_5_con.wav,8,20,8,283,20,male,109604,KoreanPoliteness_F0_KOR_KU,10,23,1,11/25/15,female,2,8,BlockProc,SpeakerBlocks,8,1,8,8,4,8,MidLo,2,0,8,2,298,2,08Perc_LoF0_8_2_con.wav,8,18,8,284,18,male,113605,KoreanPoliteness_F0_KOR_KU,10,23,1,11/25/15,female,2,8,BlockProc,SpeakerBlocks,8,1,8,8,5,8,MidHi,4,0,8,2,270,6,08Perc_HiF0_8_6_con.wav,8,13,8,285,13,male,129606,KoreanPoliteness_F0_KOR_KU,10,23,1,11/25/15,female,2,8,BlockProc,SpeakerBlocks,8,1,8,8,6,8,MidLo,2,1,8,8,349,4,08Perc_LoF0_8_4_con.wav,8,19,8,286,19,male,111607,KoreanPoliteness_F0_KOR_KU,10,23,1,11/25/15,female,2,8,BlockProc,SpeakerBlocks,8,1,8,8,7,8,MidHi,4,1,8,8,723,2,08Perc_HiF0_8_2_con.wav,8,10,8,287,10,male,133608,KoreanPoliteness_F0_KOR_KU,10,23,1,11/25/15,female,2,8,BlockProc,SpeakerBlocks,8,1,8,8,8,8,Lo,1,1,8,8,405,9,16Perc_LoF0_8_9_con.wav,8,31,8,288,31,male,109609,KoreanPoliteness_F0_KOR_KU,10,23,1,11/25/15,female,2,8,BlockProc,SpeakerBlocks,8,1,8,8,9,8,MidHi,4,1,8,8,345,9,08Perc_HiF0_8_9_con.wav,8,15,8,289,15,male,140610,KoreanPoliteness_F0_KOR_KU,10,23,1,11/25/15,female,2,8,BlockProc,SpeakerBlocks,8,1,8,8,10,8,MidLo,2,1,8,8,783,9,08Perc_LoF0_8_9_con.wav,8,23,8,290,23,male,119611,KoreanPoliteness_F0_KOR_KU,10,23,1,11/25/15,female,2,8,BlockProc,SpeakerBlocks,8,1,8,8,11,8,Hi,5,0,8,2,1099,2,16Perc_HiF0_8_2_con.wav,8,2,8,291,2,male,143612,KoreanPoliteness_F0_KOR_KU,10,23,1,11/25/15,female,2,8,BlockProc,SpeakerBlocks,8,1,8,8,12,8,Hi,5,0,8,2,325,10,16Perc_HiF0_8_10_con.wav,8,8,8,292,8,male,140613,KoreanPoliteness_F0_KOR_KU,10,23,1,11/25/15,female,2,8,BlockProc,SpeakerBlocks,8,1,8,8,13,8,Orig,3,0,8,2,337,9,8_9_con.wav,8,39,8,293,39,male,130614,KoreanPoliteness_F0_KOR_KU,10,23,1,11/25/15,female,2,8,BlockProc,SpeakerBlocks,8,1,8,8,14,8,Hi,5,1,8,8,511,7,16Perc_HiF0_8_7_con.wav,8,6,8,294,6,male,147615,KoreanPoliteness_F0_KOR_KU,10,23,1,11/25/15,female,2,8,BlockProc,SpeakerBlocks,8,1,8,8,15,8,MidHi,4,1,8,8,338,5,08Perc_HiF0_8_5_con.wav,8,12,8,295,12,male,128616,KoreanPoliteness_F0_KOR_KU,10,23,1,11/25/15,female,2,8,BlockProc,SpeakerBlocks,8,1,8,8,16,8,Hi,5,1,8,8,307,4,16Perc_HiF0_8_4_con.wav,8,3,8,296,3,male,140617,KoreanPoliteness_F0_KOR_KU,10,23,1,11/25/15,female,2,8,BlockProc,SpeakerBlocks,8,1,8,8,17,8,Orig,3,1,8,8,748,10,8_10_con.wav,8,40,8,297,40,male,121618,KoreanPoliteness_F0_KOR_KU,10,23,1,11/25/15,female,2,8,BlockProc,SpeakerBlocks,8,1,8,8,18,8,MidHi,4,1,8,8,433,10,08Perc_HiF0_8_10_con.wav,8,16,8,298,16,male,130619,KoreanPoliteness_F0_KOR_KU,10,23,1,11/25/15,female,2,8,BlockProc,SpeakerBlocks,8,1,8,8,19,8,Orig,3,0,8,2,519,2,8_2_con.wav,8,34,8,299,34,male,123620,KoreanPoliteness_F0_KOR_KU,10,23,1,11/25/15,female,2,8,BlockProc,SpeakerBlocks,8,1,8,8,20,8,Orig,3,0,8,2,340,5,8_5_con.wav,8,36,8,300,36,male,119621,KoreanPoliteness_F0_KOR_KU,10,23,1,11/25/15,female,2,8,BlockProc,SpeakerBlocks,8,1,8,8,21,8,Orig,3,0,8,2,418,4,8_4_con.wav,8,35,8,301,35,male,121622,KoreanPoliteness_F0_KOR_KU,10,23,1,11/25/15,female,2,8,BlockProc,SpeakerBlocks,8,1,8,8,22,8,Hi,5,1,8,8,619,5,16Perc_HiF0_8_5_con.wav,8,4,8,302,4,male,138623,KoreanPoliteness_F0_KOR_KU,10,23,1,11/25/15,female,2,8,BlockProc,SpeakerBlocks,8,1,8,8,23,8,Lo,1,1,8,8,347,5,16Perc_LoF0_8_5_con.wav,8,28,8,303,28,male,100624,KoreanPoliteness_F0_KOR_KU,10,23,1,11/25/15,female,2,8,BlockProc,SpeakerBlocks,8,1,8,8,24,8,Lo,1,1,8,8,300,4,16Perc_LoF0_8_4_con.wav,8,27,8,304,27,male,101625,KoreanPoliteness_F0_KOR_KU,10,23,1,11/25/15,female,2,8,BlockProc,SpeakerBlocks,8,1,8,8,25,8,MidLo,2,1,8,8,501,6,08Perc_LoF0_8_6_con.wav,8,21,8,305,21,male,110626,KoreanPoliteness_F0_KOR_KU,10,23,1,11/25/15,female,2,8,BlockProc,SpeakerBlocks,8,1,8,8,26,8,Lo,1,1,8,8,421,7,16Perc_LoF0_8_7_con.wav,8,30,8,306,30,male,106627,KoreanPoliteness_F0_KOR_KU,10,23,1,11/25/15,female,2,8,BlockProc,SpeakerBlocks,8,1,8,8,27,8,Hi,5,1,8,8,252,1,16Perc_HiF0_8_1_con.wav,8,1,8,307,1,male,133